<MetaDataVersion xmlns="http://www.cdisc.org/ns/odm/v1.3" OID="MV.CDASHIG_2-1"
 Name="Metadata for CDASH-IG version 2-1">
 <FormDef OID="CDASH_2-1_FO_1" Name="Form CO - Comments" Repeating="No">
  <Description>
   <TranslatedText xml:lang="en">CO - Comments</TranslatedText>
  </Description>
  <ItemGroupRef ItemGroupOID="CDASH_2-1_IG_1" Mandatory="Yes"/>
 </FormDef>
 <FormDef OID="CDASH_2-1_FO_2" Name="Form DM - Demographics" Repeating="No">
  <Description>
   <TranslatedText xml:lang="en">DM - Demographics</TranslatedText>
  </Description>
  <ItemGroupRef ItemGroupOID="CDASH_2-1_IG_2" Mandatory="Yes"/>
 </FormDef>
 <FormDef OID="CDASH_2-1_FO_3" Name="Form CM - Concomitant Medications" Repeating="No">
  <Description>
   <TranslatedText xml:lang="en">CM - Concomitant Medications</TranslatedText>
  </Description>
  <ItemGroupRef ItemGroupOID="CDASH_2-1_IG_3" Mandatory="Yes"/>
 </FormDef>
 <FormDef OID="CDASH_2-1_FO_4" Name="Form EC - Exposure as Collected" Repeating="No">
  <Description>
   <TranslatedText xml:lang="en">EC - Exposure as Collected</TranslatedText>
  </Description>
  <ItemGroupRef ItemGroupOID="CDASH_2-1_IG_4" Mandatory="Yes"/>
 </FormDef>
 <FormDef OID="CDASH_2-1_FO_5" Name="Form EX - Exposure" Repeating="No">
  <Description>
   <TranslatedText xml:lang="en">EX - Exposure</TranslatedText>
  </Description>
  <ItemGroupRef ItemGroupOID="CDASH_2-1_IG_5" Mandatory="Yes"/>
 </FormDef>
 <FormDef OID="CDASH_2-1_FO_6" Name="Form PR - Procedures" Repeating="No">
  <Description>
   <TranslatedText xml:lang="en">PR - Procedures</TranslatedText>
  </Description>
  <ItemGroupRef ItemGroupOID="CDASH_2-1_IG_6" Mandatory="Yes"/>
 </FormDef>
 <FormDef OID="CDASH_2-1_FO_7" Name="Form SU - Substance Use" Repeating="No">
  <Description>
   <TranslatedText xml:lang="en">SU - Substance Use</TranslatedText>
  </Description>
  <ItemGroupRef ItemGroupOID="CDASH_2-1_IG_7" Mandatory="Yes"/>
 </FormDef>
 <FormDef OID="CDASH_2-1_FO_8" Name="Form AE - Adverse Events" Repeating="No">
  <Description>
   <TranslatedText xml:lang="en">AE - Adverse Events</TranslatedText>
  </Description>
  <ItemGroupRef ItemGroupOID="CDASH_2-1_IG_8" Mandatory="Yes"/>
 </FormDef>
 <FormDef OID="CDASH_2-1_FO_9" Name="Form CE - Clinical Events" Repeating="No">
  <Description>
   <TranslatedText xml:lang="en">CE - Clinical Events</TranslatedText>
  </Description>
  <ItemGroupRef ItemGroupOID="CDASH_2-1_IG_9" Mandatory="Yes"/>
 </FormDef>
 <FormDef OID="CDASH_2-1_FO_10" Name="Form DS - Disposition" Repeating="No">
  <Description>
   <TranslatedText xml:lang="en">DS - Disposition</TranslatedText>
  </Description>
  <ItemGroupRef ItemGroupOID="CDASH_2-1_IG_10" Mandatory="Yes"/>
 </FormDef>
 <FormDef OID="CDASH_2-1_FO_11" Name="Form DV - Protocol Deviations" Repeating="No">
  <Description>
   <TranslatedText xml:lang="en">DV - Protocol Deviations</TranslatedText>
  </Description>
  <ItemGroupRef ItemGroupOID="CDASH_2-1_IG_11" Mandatory="Yes"/>
 </FormDef>
 <FormDef OID="CDASH_2-1_FO_12" Name="Form HO - Healthcare Encounters" Repeating="No">
  <Description>
   <TranslatedText xml:lang="en">HO - Healthcare Encounters</TranslatedText>
  </Description>
  <ItemGroupRef ItemGroupOID="CDASH_2-1_IG_12" Mandatory="Yes"/>
 </FormDef>
 <FormDef OID="CDASH_2-1_FO_13" Name="Form MH - Medical History" Repeating="No">
  <Description>
   <TranslatedText xml:lang="en">MH - Medical History</TranslatedText>
  </Description>
  <ItemGroupRef ItemGroupOID="CDASH_2-1_IG_13" Mandatory="Yes"/>
 </FormDef>
 <FormDef OID="CDASH_2-1_FO_14" Name="Form DA - Implementation Options: HorizontalGeneric"
  Repeating="No">
  <Description>
   <TranslatedText xml:lang="en">DA - Implementation Options: HorizontalGeneric</TranslatedText>
  </Description>
  <ItemGroupRef ItemGroupOID="CDASH_2-1_IG_14" Mandatory="Yes"/>
 </FormDef>
 <FormDef OID="CDASH_2-1_FO_15" Name="Form DD - Implementation Options: HorizontalGeneric"
  Repeating="No">
  <Description>
   <TranslatedText xml:lang="en">DD - Implementation Options: HorizontalGeneric</TranslatedText>
  </Description>
  <ItemGroupRef ItemGroupOID="CDASH_2-1_IG_15" Mandatory="Yes"/>
 </FormDef>
 <FormDef OID="CDASH_2-1_FO_16" Name="Form EG - Central Reading" Repeating="No">
  <Description>
   <TranslatedText xml:lang="en">EG - Central Reading</TranslatedText>
  </Description>
  <ItemGroupRef ItemGroupOID="CDASH_2-1_IG_16" Mandatory="Yes"/>
 </FormDef>
 <FormDef OID="CDASH_2-1_FO_17" Name="Form EG - Local Reading" Repeating="No">
  <Description>
   <TranslatedText xml:lang="en">EG - Local Reading</TranslatedText>
  </Description>
  <ItemGroupRef ItemGroupOID="CDASH_2-1_IG_17" Mandatory="Yes"/>
 </FormDef>
 <FormDef OID="CDASH_2-1_FO_18" Name="Form EG - Central Reading with Investigator Assessment"
  Repeating="No">
  <Description>
   <TranslatedText xml:lang="en">EG - Central Reading with Investigator Assessment</TranslatedText>
  </Description>
  <ItemGroupRef ItemGroupOID="CDASH_2-1_IG_18" Mandatory="Yes"/>
 </FormDef>
 <FormDef OID="CDASH_2-1_FO_19" Name="Form IE - Inclusion/Exclusion Criteria Not Met" Repeating="No">
  <Description>
   <TranslatedText xml:lang="en">IE - Inclusion/Exclusion Criteria Not Met</TranslatedText>
  </Description>
  <ItemGroupRef ItemGroupOID="CDASH_2-1_IG_19" Mandatory="Yes"/>
 </FormDef>
 <FormDef OID="CDASH_2-1_FO_20" Name="Form LB - Central Processing" Repeating="No">
  <Description>
   <TranslatedText xml:lang="en">LB - Central Processing</TranslatedText>
  </Description>
  <ItemGroupRef ItemGroupOID="CDASH_2-1_IG_20" Mandatory="Yes"/>
 </FormDef>
 <FormDef OID="CDASH_2-1_FO_21" Name="Form LB - Central Processing with CS" Repeating="No">
  <Description>
   <TranslatedText xml:lang="en">LB - Central Processing with CS</TranslatedText>
  </Description>
  <ItemGroupRef ItemGroupOID="CDASH_2-1_IG_21" Mandatory="Yes"/>
 </FormDef>
 <FormDef OID="CDASH_2-1_FO_22" Name="Form LB - Local Processing" Repeating="No">
  <Description>
   <TranslatedText xml:lang="en">LB - Local Processing</TranslatedText>
  </Description>
  <ItemGroupRef ItemGroupOID="CDASH_2-1_IG_22" Mandatory="Yes"/>
 </FormDef>
 <FormDef OID="CDASH_2-1_FO_23" Name="Form MB - Central Processing" Repeating="No">
  <Description>
   <TranslatedText xml:lang="en">MB - Central Processing</TranslatedText>
  </Description>
  <ItemGroupRef ItemGroupOID="CDASH_2-1_IG_23" Mandatory="Yes"/>
 </FormDef>
 <FormDef OID="CDASH_2-1_FO_24" Name="Form MB - Local Processing" Repeating="No">
  <Description>
   <TranslatedText xml:lang="en">MB - Local Processing</TranslatedText>
  </Description>
  <ItemGroupRef ItemGroupOID="CDASH_2-1_IG_24" Mandatory="Yes"/>
 </FormDef>
 <FormDef OID="CDASH_2-1_FO_25" Name="Form MI - Central Processing" Repeating="No">
  <Description>
   <TranslatedText xml:lang="en">MI - Central Processing</TranslatedText>
  </Description>
  <ItemGroupRef ItemGroupOID="CDASH_2-1_IG_25" Mandatory="Yes"/>
 </FormDef>
 <FormDef OID="CDASH_2-1_FO_26" Name="Form MI - Local Processing" Repeating="No">
  <Description>
   <TranslatedText xml:lang="en">MI - Local Processing</TranslatedText>
  </Description>
  <ItemGroupRef ItemGroupOID="CDASH_2-1_IG_26" Mandatory="Yes"/>
 </FormDef>
 <FormDef OID="CDASH_2-1_FO_27" Name="Form MS - Central Processing" Repeating="No">
  <Description>
   <TranslatedText xml:lang="en">MS - Central Processing</TranslatedText>
  </Description>
  <ItemGroupRef ItemGroupOID="CDASH_2-1_IG_27" Mandatory="Yes"/>
 </FormDef>
 <FormDef OID="CDASH_2-1_FO_28" Name="Form MS - Local Processing" Repeating="No">
  <Description>
   <TranslatedText xml:lang="en">MS - Local Processing</TranslatedText>
  </Description>
  <ItemGroupRef ItemGroupOID="CDASH_2-1_IG_28" Mandatory="Yes"/>
 </FormDef>
 <FormDef OID="CDASH_2-1_FO_29" Name="Form PC - PK Sample Collection at Fixed Time Points"
  Repeating="No">
  <Description>
   <TranslatedText xml:lang="en">PC - PK Sample Collection at Fixed Time Points</TranslatedText>
  </Description>
  <ItemGroupRef ItemGroupOID="CDASH_2-1_IG_29" Mandatory="Yes"/>
 </FormDef>
 <FormDef OID="CDASH_2-1_FO_30" Name="Form PC - PK Sample Collection over a Time Interval"
  Repeating="No">
  <Description>
   <TranslatedText xml:lang="en">PC - PK Sample Collection over a Time Interval</TranslatedText>
  </Description>
  <ItemGroupRef ItemGroupOID="CDASH_2-1_IG_30" Mandatory="Yes"/>
 </FormDef>
 <FormDef OID="CDASH_2-1_FO_31" Name="Form PE-Traditional" Repeating="No">
  <Description>
   <TranslatedText xml:lang="en">PE-Traditional</TranslatedText>
  </Description>
  <ItemGroupRef ItemGroupOID="CDASH_2-1_IG_31" Mandatory="Yes"/>
 </FormDef>
 <FormDef OID="CDASH_2-1_FO_32" Name="Form RP - Reproductive System Findings" Repeating="No">
  <Description>
   <TranslatedText xml:lang="en">RP - Reproductive System Findings</TranslatedText>
  </Description>
  <ItemGroupRef ItemGroupOID="CDASH_2-1_IG_32" Mandatory="Yes"/>
 </FormDef>
 <FormDef OID="CDASH_2-1_FO_33" Name="Form RS - Disease Response" Repeating="No">
  <Description>
   <TranslatedText xml:lang="en">RS - Disease Response</TranslatedText>
  </Description>
  <ItemGroupRef ItemGroupOID="CDASH_2-1_IG_33" Mandatory="Yes"/>
 </FormDef>
 <FormDef OID="CDASH_2-1_FO_34" Name="Form SC - Implementation Options: HorizontalGeneric"
  Repeating="No">
  <Description>
   <TranslatedText xml:lang="en">SC - Implementation Options: HorizontalGeneric</TranslatedText>
  </Description>
  <ItemGroupRef ItemGroupOID="CDASH_2-1_IG_34" Mandatory="Yes"/>
 </FormDef>
 <FormDef OID="CDASH_2-1_FO_35" Name="Form TR - Tumor Results" Repeating="No">
  <Description>
   <TranslatedText xml:lang="en">TR - Tumor Results</TranslatedText>
  </Description>
  <ItemGroupRef ItemGroupOID="CDASH_2-1_IG_35" Mandatory="Yes"/>
 </FormDef>
 <FormDef OID="CDASH_2-1_FO_36" Name="Form TU - Tumor Identification" Repeating="No">
  <Description>
   <TranslatedText xml:lang="en">TU - Tumor Identification</TranslatedText>
  </Description>
  <ItemGroupRef ItemGroupOID="CDASH_2-1_IG_36" Mandatory="Yes"/>
 </FormDef>
 <FormDef OID="CDASH_2-1_FO_37" Name="Form VS - Implementation Options: HorizontalGeneric"
  Repeating="No">
  <Description>
   <TranslatedText xml:lang="en">VS - Implementation Options: HorizontalGeneric</TranslatedText>
  </Description>
  <ItemGroupRef ItemGroupOID="CDASH_2-1_IG_37" Mandatory="Yes"/>
 </FormDef>
 <FormDef OID="CDASH_2-1_FO_38" Name="Form FA - Findings About Events or Interventions"
  Repeating="No">
  <Description>
   <TranslatedText xml:lang="en">FA - Findings About Events or Interventions</TranslatedText>
  </Description>
  <ItemGroupRef ItemGroupOID="CDASH_2-1_IG_38" Mandatory="Yes"/>
 </FormDef>
 <FormDef OID="CDASH_2-1_FO_39" Name="Form SR - Skin Response" Repeating="No">
  <Description>
   <TranslatedText xml:lang="en">SR - Skin Response</TranslatedText>
  </Description>
  <ItemGroupRef ItemGroupOID="CDASH_2-1_IG_39" Mandatory="Yes"/>
 </FormDef>
 <ItemGroupDef OID="CDASH_2-1_IG_1" Name="CO - Comments" Repeating="No" Domain="CO">
  <Description>
   <TranslatedText xml:lang="en">CO - Comments</TranslatedText>
  </Description>

  <ItemRef ItemOID="IT.STUDYID" Mandatory="Yes"/>
  <ItemRef ItemOID="IT.SITEID" Mandatory="Yes"/>
  <ItemRef ItemOID="IT.SUBJID" Mandatory="Yes"/>
  <ItemRef ItemOID="IT.COVAL" Mandatory="No"/>
 </ItemGroupDef>
 <ItemGroupDef OID="CDASH_2-1_IG_2" Name="DM - Demographics" Repeating="No" Domain="DM">
  <Description>
   <TranslatedText xml:lang="en">DM - Demographics</TranslatedText>
  </Description>

  <ItemRef ItemOID="IT.STUDYID" Mandatory="Yes"/>
  <ItemRef ItemOID="IT.SITEID" Mandatory="Yes"/>
  <ItemRef ItemOID="IT.SUBJID" Mandatory="Yes"/>
  <ItemRef ItemOID="IT.BRTHDAT" Mandatory="No"/>
  <ItemRef ItemOID="IT.BRTHDD" Mandatory="No"/>
  <ItemRef ItemOID="IT.BRTHMO" Mandatory="No"/>
  <ItemRef ItemOID="IT.BRTHYY" Mandatory="No"/>
  <ItemRef ItemOID="IT.BRTHTIM" Mandatory="No"/>
  <ItemRef ItemOID="IT.AGE" Mandatory="No"/>
  <ItemRef ItemOID="IT.AGEU" Mandatory="No"/>
  <ItemRef ItemOID="IT.DMDAT" Mandatory="No"/>
  <ItemRef ItemOID="IT.SEX" Mandatory="No"/>
  <ItemRef ItemOID="IT.ETHNIC" Mandatory="No"/>
  <ItemRef ItemOID="IT.CETHNIC" Mandatory="No"/>
  <ItemRef ItemOID="IT.RACE" Mandatory="No"/>
  <ItemRef ItemOID="IT.CRACE" Mandatory="No"/>
  <ItemRef ItemOID="IT.RACEOTH" Mandatory="No"/>
 </ItemGroupDef>
 <ItemGroupDef OID="CDASH_2-1_IG_3" Name="CM - Concomitant Medications" Repeating="No" Domain="CM">
  <Description>
   <TranslatedText xml:lang="en">CM - Concomitant Medications</TranslatedText>
  </Description>

  <ItemRef ItemOID="IT.STUDYID" Mandatory="Yes"/>
  <ItemRef ItemOID="IT.SITEID" Mandatory="Yes"/>
  <ItemRef ItemOID="IT.SUBJID" Mandatory="Yes"/>
  <ItemRef ItemOID="IT.CMCAT" Mandatory="No"/>
  <ItemRef ItemOID="IT.CMSCAT" Mandatory="No"/>
  <ItemRef ItemOID="IT.CMYN" Mandatory="No"/>
  <ItemRef ItemOID="IT.CMSPID" Mandatory="No"/>
  <ItemRef ItemOID="IT.CMTRT" Mandatory="Yes"/>
  <ItemRef ItemOID="IT.CMPRESP" Mandatory="No"/>
  <ItemRef ItemOID="IT.CMOCCUR" Mandatory="No"/>
  <ItemRef ItemOID="IT.CMINGRD" Mandatory="No"/>
  <ItemRef ItemOID="IT.CMINDC" Mandatory="No"/>
  <ItemRef ItemOID="IT.CMAENO" Mandatory="No"/>
  <ItemRef ItemOID="IT.CMMHNO" Mandatory="No"/>
  <ItemRef ItemOID="IT.CMDOSE" Mandatory="No"/>
  <ItemRef ItemOID="IT.CMDSTXT" Mandatory="No"/>
  <ItemRef ItemOID="IT.CMDOSTOT" Mandatory="No"/>
  <ItemRef ItemOID="IT.CMDOSU" Mandatory="No"/>
  <ItemRef ItemOID="IT.CMDOSFRM" Mandatory="No"/>
  <ItemRef ItemOID="IT.CMDOSFRQ" Mandatory="No"/>
  <ItemRef ItemOID="IT.CMROUTE" Mandatory="No"/>
  <ItemRef ItemOID="IT.CMSTDAT" Mandatory="No"/>
  <ItemRef ItemOID="IT.CMSTTIM" Mandatory="No"/>
  <ItemRef ItemOID="IT.CMPRIOR" Mandatory="No"/>
  <ItemRef ItemOID="IT.CMONGO" Mandatory="No"/>
  <ItemRef ItemOID="IT.CMENDAT" Mandatory="No"/>
  <ItemRef ItemOID="IT.CMENTIM" Mandatory="No"/>
  <ItemRef ItemOID="IT.CMDECOD" Mandatory="No"/>
  <ItemRef ItemOID="IT.CMCLAS" Mandatory="No"/>
  <ItemRef ItemOID="IT.CMCLASCD" Mandatory="No"/>
  <ItemRef ItemOID="IT.CMATC1" Mandatory="No"/>
  <ItemRef ItemOID="IT.CMATC1CD" Mandatory="No"/>
  <ItemRef ItemOID="IT.CMATC2" Mandatory="No"/>
  <ItemRef ItemOID="IT.CMATC2CD" Mandatory="No"/>
  <ItemRef ItemOID="IT.CMATC3" Mandatory="No"/>
  <ItemRef ItemOID="IT.CMATC3CD" Mandatory="No"/>
  <ItemRef ItemOID="IT.CMATC4" Mandatory="No"/>
  <ItemRef ItemOID="IT.CMATC4CD" Mandatory="No"/>
  <ItemRef ItemOID="IT.CMATC5" Mandatory="No"/>
  <ItemRef ItemOID="IT.CMATC5CD" Mandatory="No"/>
 </ItemGroupDef>
 <ItemGroupDef OID="CDASH_2-1_IG_4" Name="EC - Exposure as Collected" Repeating="No" Domain="EC">
  <Description>
   <TranslatedText xml:lang="en">EC - Exposure as Collected</TranslatedText>
  </Description>

  <ItemRef ItemOID="IT.STUDYID" Mandatory="Yes"/>
  <ItemRef ItemOID="IT.SITEID" Mandatory="Yes"/>
  <ItemRef ItemOID="IT.SUBJID" Mandatory="Yes"/>
  <ItemRef ItemOID="IT.EPOCH" Mandatory="No"/>
  <ItemRef ItemOID="IT.ECYN" Mandatory="No"/>
  <ItemRef ItemOID="IT.ECCAT" Mandatory="No"/>
  <ItemRef ItemOID="IT.ECSCAT" Mandatory="No"/>
  <ItemRef ItemOID="IT.ECTRT" Mandatory="No"/>
  <ItemRef ItemOID="IT.ECPRESP" Mandatory="No"/>
  <ItemRef ItemOID="IT.ECOCCUR" Mandatory="No"/>
  <ItemRef ItemOID="IT.ECREASOC" Mandatory="No"/>
  <ItemRef ItemOID="IT.ECMOOD" Mandatory="No"/>
  <ItemRef ItemOID="IT.ECREFID" Mandatory="No"/>
  <ItemRef ItemOID="IT.ECLOT" Mandatory="No"/>
  <ItemRef ItemOID="IT.ECFAST" Mandatory="No"/>
  <ItemRef ItemOID="IT.ECDOSFRM" Mandatory="No"/>
  <ItemRef ItemOID="IT.ECSTDAT" Mandatory="Yes"/>
  <ItemRef ItemOID="IT.ECSTTIM" Mandatory="No"/>
  <ItemRef ItemOID="IT.ECENDAT" Mandatory="No"/>
  <ItemRef ItemOID="IT.ECENTIM" Mandatory="No"/>
  <ItemRef ItemOID="IT.ECDSTXT" Mandatory="No"/>
  <ItemRef ItemOID="IT.ECDOSU" Mandatory="No"/>
  <ItemRef ItemOID="IT.ECDOSFRQ" Mandatory="No"/>
  <ItemRef ItemOID="IT.ECROUTE" Mandatory="No"/>
  <ItemRef ItemOID="IT.ECDOSRGM" Mandatory="No"/>
  <ItemRef ItemOID="IT.ECDOSADJ" Mandatory="No"/>
  <ItemRef ItemOID="IT.ECADJ" Mandatory="No"/>
  <ItemRef ItemOID="IT.ECITRPYN" Mandatory="No"/>
  <ItemRef ItemOID="IT.ECCINTD" Mandatory="No"/>
  <ItemRef ItemOID="IT.ECCINTDU" Mandatory="No"/>
  <ItemRef ItemOID="IT.ECLOC" Mandatory="No"/>
  <ItemRef ItemOID="IT.ECLAT" Mandatory="No"/>
  <ItemRef ItemOID="IT.ECDIR" Mandatory="No"/>
  <ItemRef ItemOID="IT.ECVAMT" Mandatory="No"/>
  <ItemRef ItemOID="IT.ECVAMTU" Mandatory="No"/>
  <ItemRef ItemOID="IT.ECFLRT" Mandatory="No"/>
  <ItemRef ItemOID="IT.ECFLRTU" Mandatory="No"/>
  <ItemRef ItemOID="IT.ECTPT" Mandatory="No"/>
  <ItemRef ItemOID="IT.ECTRTCMP" Mandatory="No"/>
 </ItemGroupDef>
 <ItemGroupDef OID="CDASH_2-1_IG_5" Name="EX - Exposure" Repeating="No" Domain="EX">
  <Description>
   <TranslatedText xml:lang="en">EX - Exposure</TranslatedText>
  </Description>

  <ItemRef ItemOID="IT.STUDYID" Mandatory="Yes"/>
  <ItemRef ItemOID="IT.SITEID" Mandatory="Yes"/>
  <ItemRef ItemOID="IT.SUBJID" Mandatory="Yes"/>
  <ItemRef ItemOID="IT.EPOCH" Mandatory="No"/>
  <ItemRef ItemOID="IT.EXYN" Mandatory="No"/>
  <ItemRef ItemOID="IT.EXCAT" Mandatory="No"/>
  <ItemRef ItemOID="IT.EXSCAT" Mandatory="No"/>
  <ItemRef ItemOID="IT.EXTRT" Mandatory="No"/>
  <ItemRef ItemOID="IT.EXREFID" Mandatory="No"/>
  <ItemRef ItemOID="IT.EXLOT" Mandatory="No"/>
  <ItemRef ItemOID="IT.EXFAST" Mandatory="No"/>
  <ItemRef ItemOID="IT.EXDOSFRM" Mandatory="No"/>
  <ItemRef ItemOID="IT.EXSTDAT" Mandatory="Yes"/>
  <ItemRef ItemOID="IT.EXSTTIM" Mandatory="No"/>
  <ItemRef ItemOID="IT.EXENDAT" Mandatory="No"/>
  <ItemRef ItemOID="IT.EXENTIM" Mandatory="No"/>
  <ItemRef ItemOID="IT.EXDSTXT" Mandatory="No"/>
  <ItemRef ItemOID="IT.EXDOSU" Mandatory="No"/>
  <ItemRef ItemOID="IT.EXDOSFRQ" Mandatory="No"/>
  <ItemRef ItemOID="IT.EXROUTE" Mandatory="No"/>
  <ItemRef ItemOID="IT.EXDOSRGM" Mandatory="No"/>
  <ItemRef ItemOID="IT.EXDOSADJ" Mandatory="No"/>
  <ItemRef ItemOID="IT.EXADJ" Mandatory="No"/>
  <ItemRef ItemOID="IT.EXITRPYN" Mandatory="No"/>
  <ItemRef ItemOID="IT.EXCINTD" Mandatory="No"/>
  <ItemRef ItemOID="IT.EXCINTDU" Mandatory="No"/>
  <ItemRef ItemOID="IT.EXLOC" Mandatory="No"/>
  <ItemRef ItemOID="IT.EXVAMT" Mandatory="No"/>
  <ItemRef ItemOID="IT.EXVAMTU" Mandatory="No"/>
  <ItemRef ItemOID="IT.EXFLRT" Mandatory="No"/>
  <ItemRef ItemOID="IT.EXFLRTU" Mandatory="No"/>
  <ItemRef ItemOID="IT.EXTPT" Mandatory="No"/>
  <ItemRef ItemOID="IT.EXTRTCMP" Mandatory="No"/>
  <ItemRef ItemOID="IT.EXLAT" Mandatory="No"/>
  <ItemRef ItemOID="IT.EXDIR" Mandatory="No"/>
 </ItemGroupDef>
 <ItemGroupDef OID="CDASH_2-1_IG_6" Name="PR - Procedures" Repeating="No" Domain="PR">
  <Description>
   <TranslatedText xml:lang="en">PR - Procedures</TranslatedText>
  </Description>

  <ItemRef ItemOID="IT.STUDYID" Mandatory="Yes"/>
  <ItemRef ItemOID="IT.SITEID" Mandatory="Yes"/>
  <ItemRef ItemOID="IT.SUBJID" Mandatory="Yes"/>
  <ItemRef ItemOID="IT.PRYN" Mandatory="No"/>
  <ItemRef ItemOID="IT.PRCAT" Mandatory="No"/>
  <ItemRef ItemOID="IT.PRSCAT" Mandatory="No"/>
  <ItemRef ItemOID="IT.PRSPID" Mandatory="No"/>
  <ItemRef ItemOID="IT.PRTRT" Mandatory="Yes"/>
  <ItemRef ItemOID="IT.PRDECOD" Mandatory="No"/>
  <ItemRef ItemOID="IT.PRMODIFY" Mandatory="No"/>
  <ItemRef ItemOID="IT.PRPRESP" Mandatory="No"/>
  <ItemRef ItemOID="IT.PROCCUR" Mandatory="No"/>
  <ItemRef ItemOID="IT.PRREASOC" Mandatory="No"/>
  <ItemRef ItemOID="IT.PRREASND" Mandatory="No"/>
  <ItemRef ItemOID="IT.PRPRIOR" Mandatory="No"/>
  <ItemRef ItemOID="IT.PRSTDAT" Mandatory="No"/>
  <ItemRef ItemOID="IT.PRONGO" Mandatory="No"/>
  <ItemRef ItemOID="IT.PRENDAT" Mandatory="No"/>
  <ItemRef ItemOID="IT.PRINDC" Mandatory="No"/>
  <ItemRef ItemOID="IT.PRAENO" Mandatory="No"/>
  <ItemRef ItemOID="IT.PRMHNO" Mandatory="No"/>
  <ItemRef ItemOID="IT.PRDSTXT" Mandatory="No"/>
  <ItemRef ItemOID="IT.PRDOSU" Mandatory="No"/>
  <ItemRef ItemOID="IT.PRDOSFRQ" Mandatory="No"/>
  <ItemRef ItemOID="IT.PRROUTE" Mandatory="No"/>
  <ItemRef ItemOID="IT.PRLOC" Mandatory="No"/>
  <ItemRef ItemOID="IT.PRLAT" Mandatory="No"/>
  <ItemRef ItemOID="IT.PRDIR" Mandatory="No"/>
  <ItemRef ItemOID="IT.PRPORTOT" Mandatory="No"/>
  <ItemRef ItemOID="IT.PRFAST" Mandatory="No"/>
  <ItemRef ItemOID="IT.PRDOSRGM" Mandatory="No"/>
  <ItemRef ItemOID="IT.PRDOSADJ" Mandatory="No"/>
  <ItemRef ItemOID="IT.PRADJ" Mandatory="No"/>
  <ItemRef ItemOID="IT.PRTRTCMP" Mandatory="No"/>
  <ItemRef ItemOID="IT.PRITRPYN" Mandatory="No"/>
  <ItemRef ItemOID="IT.PRITRPRS" Mandatory="No"/>
  <ItemRef ItemOID="IT.PRCINTD" Mandatory="No"/>
  <ItemRef ItemOID="IT.PRCINTDU" Mandatory="No"/>
  <ItemRef ItemOID="IT.PRLLT" Mandatory="No"/>
  <ItemRef ItemOID="IT.PRLLTCD" Mandatory="No"/>
  <ItemRef ItemOID="IT.PRPTCD" Mandatory="No"/>
  <ItemRef ItemOID="IT.PRHLT" Mandatory="No"/>
  <ItemRef ItemOID="IT.PRHLTCD" Mandatory="No"/>
  <ItemRef ItemOID="IT.PRHLGT" Mandatory="No"/>
  <ItemRef ItemOID="IT.PRHLGTCD" Mandatory="No"/>
  <ItemRef ItemOID="IT.PRSOC" Mandatory="No"/>
  <ItemRef ItemOID="IT.PRSOCCD" Mandatory="No"/>
 </ItemGroupDef>
 <ItemGroupDef OID="CDASH_2-1_IG_7" Name="SU - Substance Use" Repeating="No" Domain="SU">
  <Description>
   <TranslatedText xml:lang="en">SU - Substance Use</TranslatedText>
  </Description>

  <ItemRef ItemOID="IT.STUDYID" Mandatory="Yes"/>
  <ItemRef ItemOID="IT.SITEID" Mandatory="Yes"/>
  <ItemRef ItemOID="IT.SUBJID" Mandatory="Yes"/>
  <ItemRef ItemOID="IT.SUTRT" Mandatory="Yes"/>
  <ItemRef ItemOID="IT.SUCAT" Mandatory="No"/>
  <ItemRef ItemOID="IT.SUSCAT" Mandatory="No"/>
  <ItemRef ItemOID="IT.SUPRESP" Mandatory="No"/>
  <ItemRef ItemOID="IT.SUYN" Mandatory="No"/>
  <ItemRef ItemOID="IT.SUNCF" Mandatory="No"/>
  <ItemRef ItemOID="IT.SUSPID" Mandatory="No"/>
  <ItemRef ItemOID="IT.SUREASND" Mandatory="No"/>
  <ItemRef ItemOID="IT.SUDSTXT" Mandatory="No"/>
  <ItemRef ItemOID="IT.SUDOSFRQ" Mandatory="No"/>
  <ItemRef ItemOID="IT.SUSTDAT" Mandatory="No"/>
  <ItemRef ItemOID="IT.SUENDAT" Mandatory="No"/>
  <ItemRef ItemOID="IT.SUCDUR" Mandatory="No"/>
  <ItemRef ItemOID="IT.SUCDURU" Mandatory="No"/>
  <ItemRef ItemOID="IT.SUMODIFY" Mandatory="No"/>
  <ItemRef ItemOID="IT.SUDECOD" Mandatory="No"/>
 </ItemGroupDef>
 <ItemGroupDef OID="CDASH_2-1_IG_8" Name="AE - Adverse Events" Repeating="No" Domain="AE">
  <Description>
   <TranslatedText xml:lang="en">AE - Adverse Events</TranslatedText>
  </Description>

  <ItemRef ItemOID="IT.STUDYID" Mandatory="Yes"/>
  <ItemRef ItemOID="IT.SITEID" Mandatory="Yes"/>
  <ItemRef ItemOID="IT.SUBJID" Mandatory="Yes"/>
  <ItemRef ItemOID="IT.AEYN" Mandatory="No"/>
  <ItemRef ItemOID="IT.AECAT" Mandatory="No"/>
  <ItemRef ItemOID="IT.AESCAT" Mandatory="No"/>
  <ItemRef ItemOID="IT.AESPID" Mandatory="No"/>
  <ItemRef ItemOID="IT.AETERM" Mandatory="Yes"/>
  <ItemRef ItemOID="IT.AEOCCUR" Mandatory="No"/>
  <ItemRef ItemOID="IT.AEPRESP" Mandatory="No"/>
  <ItemRef ItemOID="IT.AESTDAT" Mandatory="Yes"/>
  <ItemRef ItemOID="IT.AESTTIM" Mandatory="No"/>
  <ItemRef ItemOID="IT.AELOC" Mandatory="No"/>
  <ItemRef ItemOID="IT.AELAT" Mandatory="No"/>
  <ItemRef ItemOID="IT.AEDIR" Mandatory="No"/>
  <ItemRef ItemOID="IT.AEPORTOT" Mandatory="No"/>
  <ItemRef ItemOID="IT.AEONGO" Mandatory="No"/>
  <ItemRef ItemOID="IT.AEENDAT" Mandatory="No"/>
  <ItemRef ItemOID="IT.AEENTIM" Mandatory="No"/>
  <ItemRef ItemOID="IT.AESEV" Mandatory="No"/>
  <ItemRef ItemOID="IT.AETOXGR" Mandatory="No"/>
  <ItemRef ItemOID="IT.AESER" Mandatory="No"/>
  <ItemRef ItemOID="IT.AESDTH" Mandatory="No"/>
  <ItemRef ItemOID="IT.DTHDAT" Mandatory="No"/>
  <ItemRef ItemOID="IT.AESLIFE" Mandatory="No"/>
  <ItemRef ItemOID="IT.AESHOSP" Mandatory="No"/>
  <ItemRef ItemOID="IT.AESDISAB" Mandatory="No"/>
  <ItemRef ItemOID="IT.AESCONG" Mandatory="No"/>
  <ItemRef ItemOID="IT.AESINTV" Mandatory="No"/>
  <ItemRef ItemOID="IT.AESMIE" Mandatory="No"/>
  <ItemRef ItemOID="IT.AESCAN" Mandatory="No"/>
  <ItemRef ItemOID="IT.AESOD" Mandatory="No"/>
  <ItemRef ItemOID="IT.AEREL" Mandatory="Yes"/>
  <ItemRef ItemOID="IT.AEACN" Mandatory="No"/>
  <ItemRef ItemOID="IT.AEACNDEV" Mandatory="No"/>
  <ItemRef ItemOID="IT.AEACNOTH" Mandatory="No"/>
  <ItemRef ItemOID="IT.AEOUT" Mandatory="No"/>
  <ItemRef ItemOID="IT.AEDIS" Mandatory="No"/>
  <ItemRef ItemOID="IT.AERLNSYN" Mandatory="No"/>
  <ItemRef ItemOID="IT.AERELNST" Mandatory="No"/>
  <ItemRef ItemOID="IT.AESI" Mandatory="No"/>
  <ItemRef ItemOID="IT.AEPATT" Mandatory="No"/>
  <ItemRef ItemOID="IT.AECONTRT" Mandatory="No"/>
  <ItemRef ItemOID="IT.AEMODIFY" Mandatory="No"/>
  <ItemRef ItemOID="IT.AEDECOD" Mandatory="No"/>
  <ItemRef ItemOID="IT.AELLT" Mandatory="No"/>
  <ItemRef ItemOID="IT.AELLTCD" Mandatory="No"/>
  <ItemRef ItemOID="IT.AEPTCD" Mandatory="No"/>
  <ItemRef ItemOID="IT.AEHLT" Mandatory="No"/>
  <ItemRef ItemOID="IT.AEHLTCD" Mandatory="No"/>
  <ItemRef ItemOID="IT.AEHLGT" Mandatory="No"/>
  <ItemRef ItemOID="IT.AEHLGTCD" Mandatory="No"/>
  <ItemRef ItemOID="IT.AESOC" Mandatory="No"/>
  <ItemRef ItemOID="IT.AESOCCD" Mandatory="No"/>
  <ItemRef ItemOID="IT.AEACNOYN" Mandatory="No"/>
 </ItemGroupDef>
 <ItemGroupDef OID="CDASH_2-1_IG_9" Name="CE - Clinical Events" Repeating="No" Domain="CE">
  <Description>
   <TranslatedText xml:lang="en">CE - Clinical Events</TranslatedText>
  </Description>

  <ItemRef ItemOID="IT.STUDYID" Mandatory="Yes"/>
  <ItemRef ItemOID="IT.SITEID" Mandatory="Yes"/>
  <ItemRef ItemOID="IT.SUBJID" Mandatory="Yes"/>
  <ItemRef ItemOID="IT.CECAT" Mandatory="No"/>
  <ItemRef ItemOID="IT.CESCAT" Mandatory="No"/>
  <ItemRef ItemOID="IT.CEYN" Mandatory="No"/>
  <ItemRef ItemOID="IT.CESPID" Mandatory="No"/>
  <ItemRef ItemOID="IT.CETERM" Mandatory="Yes"/>
  <ItemRef ItemOID="IT.CEOCCUR" Mandatory="No"/>
  <ItemRef ItemOID="IT.CEPRESP" Mandatory="No"/>
  <ItemRef ItemOID="IT.CESTDAT" Mandatory="No"/>
  <ItemRef ItemOID="IT.CESTTIM" Mandatory="No"/>
  <ItemRef ItemOID="IT.CELOC" Mandatory="No"/>
  <ItemRef ItemOID="IT.CELAT" Mandatory="No"/>
  <ItemRef ItemOID="IT.CEDIR" Mandatory="No"/>
  <ItemRef ItemOID="IT.CEPORTOT" Mandatory="No"/>
  <ItemRef ItemOID="IT.CEONGO" Mandatory="No"/>
  <ItemRef ItemOID="IT.CEENDAT" Mandatory="No"/>
  <ItemRef ItemOID="IT.CEENTIM" Mandatory="No"/>
  <ItemRef ItemOID="IT.CESEV" Mandatory="No"/>
  <ItemRef ItemOID="IT.CETOX" Mandatory="No"/>
  <ItemRef ItemOID="IT.CETOXGR" Mandatory="No"/>
  <ItemRef ItemOID="IT.CEMODIFY" Mandatory="No"/>
  <ItemRef ItemOID="IT.CEDECOD" Mandatory="No"/>
  <ItemRef ItemOID="IT.CELLT" Mandatory="No"/>
  <ItemRef ItemOID="IT.CELLTCD" Mandatory="No"/>
  <ItemRef ItemOID="IT.CEPTCD" Mandatory="No"/>
  <ItemRef ItemOID="IT.CEHLT" Mandatory="No"/>
  <ItemRef ItemOID="IT.CEHLTCD" Mandatory="No"/>
  <ItemRef ItemOID="IT.CEHLGT" Mandatory="No"/>
  <ItemRef ItemOID="IT.CEHLGTCD" Mandatory="No"/>
  <ItemRef ItemOID="IT.CESOC" Mandatory="No"/>
  <ItemRef ItemOID="IT.CESOCCD" Mandatory="No"/>
 </ItemGroupDef>
 <ItemGroupDef OID="CDASH_2-1_IG_10" Name="DS - Disposition" Repeating="No" Domain="DS">
  <Description>
   <TranslatedText xml:lang="en">DS - Disposition</TranslatedText>
  </Description>

  <ItemRef ItemOID="IT.STUDYID" Mandatory="Yes"/>
  <ItemRef ItemOID="IT.SITEID" Mandatory="Yes"/>
  <ItemRef ItemOID="IT.SUBJID" Mandatory="Yes"/>
  <ItemRef ItemOID="IT.DSCAT" Mandatory="Yes"/>
  <ItemRef ItemOID="IT.DSSCAT" Mandatory="No"/>
  <ItemRef ItemOID="IT.EPOCH" Mandatory="No"/>
  <ItemRef ItemOID="IT.DSDECOD" Mandatory="No"/>
  <ItemRef ItemOID="IT.DSTERM" Mandatory="No"/>
  <ItemRef ItemOID="IT.DSSTDAT" Mandatory="No"/>
  <ItemRef ItemOID="IT.DSSTTIM" Mandatory="No"/>
  <ItemRef ItemOID="IT.DTHDAT" Mandatory="No"/>
  <ItemRef ItemOID="IT.DSUNBLND" Mandatory="No"/>
  <ItemRef ItemOID="IT.DSCONT" Mandatory="No"/>
  <ItemRef ItemOID="IT.DSNEXT" Mandatory="No"/>
 </ItemGroupDef>
 <ItemGroupDef OID="CDASH_2-1_IG_11" Name="DV - Protocol Deviations" Repeating="No" Domain="DV">
  <Description>
   <TranslatedText xml:lang="en">DV - Protocol Deviations</TranslatedText>
  </Description>

  <ItemRef ItemOID="IT.STUDYID" Mandatory="Yes"/>
  <ItemRef ItemOID="IT.SITEID" Mandatory="Yes"/>
  <ItemRef ItemOID="IT.SUBJID" Mandatory="Yes"/>
  <ItemRef ItemOID="IT.DVCAT" Mandatory="No"/>
  <ItemRef ItemOID="IT.DVSCAT" Mandatory="No"/>
  <ItemRef ItemOID="IT.DVYN" Mandatory="No"/>
  <ItemRef ItemOID="IT.DVDECOD" Mandatory="No"/>
  <ItemRef ItemOID="IT.DVTERM" Mandatory="No"/>
  <ItemRef ItemOID="IT.DVSTDAT" Mandatory="No"/>
  <ItemRef ItemOID="IT.DVSTTIM" Mandatory="No"/>
  <ItemRef ItemOID="IT.DVENDAT" Mandatory="No"/>
  <ItemRef ItemOID="IT.DVENTIM" Mandatory="No"/>
  <ItemRef ItemOID="IT.DVSPID" Mandatory="No"/>
 </ItemGroupDef>
 <ItemGroupDef OID="CDASH_2-1_IG_12" Name="HO - Healthcare Encounters" Repeating="No" Domain="HO">
  <Description>
   <TranslatedText xml:lang="en">HO - Healthcare Encounters</TranslatedText>
  </Description>

  <ItemRef ItemOID="IT.STUDYID" Mandatory="Yes"/>
  <ItemRef ItemOID="IT.SITEID" Mandatory="Yes"/>
  <ItemRef ItemOID="IT.SUBJID" Mandatory="Yes"/>
  <ItemRef ItemOID="IT.HOYN" Mandatory="No"/>
  <ItemRef ItemOID="IT.HOCAT" Mandatory="No"/>
  <ItemRef ItemOID="IT.HOSCAT" Mandatory="No"/>
  <ItemRef ItemOID="IT.HOOCCUR" Mandatory="No"/>
  <ItemRef ItemOID="IT.HOPRESP" Mandatory="No"/>
  <ItemRef ItemOID="IT.HOREASND" Mandatory="No"/>
  <ItemRef ItemOID="IT.HOSPID" Mandatory="No"/>
  <ItemRef ItemOID="IT.HOTERM" Mandatory="Yes"/>
  <ItemRef ItemOID="IT.HODECOD" Mandatory="No"/>
  <ItemRef ItemOID="IT.HOSTDAT" Mandatory="No"/>
  <ItemRef ItemOID="IT.HOSTTIM" Mandatory="No"/>
  <ItemRef ItemOID="IT.HOENDAT" Mandatory="No"/>
  <ItemRef ItemOID="IT.HOENTIM" Mandatory="No"/>
  <ItemRef ItemOID="IT.HOCDUR" Mandatory="No"/>
  <ItemRef ItemOID="IT.HOCDURU" Mandatory="No"/>
  <ItemRef ItemOID="IT.HOONGO" Mandatory="No"/>
  <ItemRef ItemOID="IT.HOREAS" Mandatory="No"/>
  <ItemRef ItemOID="IT.HOAENO" Mandatory="No"/>
 </ItemGroupDef>
 <ItemGroupDef OID="CDASH_2-1_IG_13" Name="MH - Medical History" Repeating="No" Domain="MH">
  <Description>
   <TranslatedText xml:lang="en">MH - Medical History</TranslatedText>
  </Description>

  <ItemRef ItemOID="IT.STUDYID" Mandatory="Yes"/>
  <ItemRef ItemOID="IT.SITEID" Mandatory="Yes"/>
  <ItemRef ItemOID="IT.SUBJID" Mandatory="Yes"/>
  <ItemRef ItemOID="IT.MHYN" Mandatory="No"/>
  <ItemRef ItemOID="IT.MHCAT" Mandatory="No"/>
  <ItemRef ItemOID="IT.MHSCAT" Mandatory="No"/>
  <ItemRef ItemOID="IT.MHDAT" Mandatory="No"/>
  <ItemRef ItemOID="IT.MHSPID" Mandatory="No"/>
  <ItemRef ItemOID="IT.MHEVDTYP" Mandatory="No"/>
  <ItemRef ItemOID="IT.MHTERM" Mandatory="Yes"/>
  <ItemRef ItemOID="IT.MHOCCUR" Mandatory="No"/>
  <ItemRef ItemOID="IT.MHPRESP" Mandatory="No"/>
  <ItemRef ItemOID="IT.MHPRIOR" Mandatory="No"/>
  <ItemRef ItemOID="IT.MHONGO" Mandatory="No"/>
  <ItemRef ItemOID="IT.MHCTRL" Mandatory="No"/>
  <ItemRef ItemOID="IT.MHSTDAT" Mandatory="No"/>
  <ItemRef ItemOID="IT.MHENDAT" Mandatory="No"/>
  <ItemRef ItemOID="IT.MHLOC" Mandatory="No"/>
  <ItemRef ItemOID="IT.MHLAT" Mandatory="No"/>
  <ItemRef ItemOID="IT.MHDIR" Mandatory="No"/>
  <ItemRef ItemOID="IT.MHPORTOT" Mandatory="No"/>
  <ItemRef ItemOID="IT.MHMODIFY" Mandatory="No"/>
  <ItemRef ItemOID="IT.MHDECOD" Mandatory="No"/>
  <ItemRef ItemOID="IT.MHLLT" Mandatory="No"/>
  <ItemRef ItemOID="IT.MHLLTCD" Mandatory="No"/>
  <ItemRef ItemOID="IT.MHPTCD" Mandatory="No"/>
  <ItemRef ItemOID="IT.MHHLT" Mandatory="No"/>
  <ItemRef ItemOID="IT.MHHLTCD" Mandatory="No"/>
  <ItemRef ItemOID="IT.MHHLGT" Mandatory="No"/>
  <ItemRef ItemOID="IT.MHHLGTCD" Mandatory="No"/>
  <ItemRef ItemOID="IT.MHSOC" Mandatory="No"/>
  <ItemRef ItemOID="IT.MHSOCCD" Mandatory="No"/>
 </ItemGroupDef>
 <ItemGroupDef OID="CDASH_2-1_IG_14" Name="DA - Implementation Options: HorizontalGeneric"
  Repeating="No" Domain="DA">
  <Description>
   <TranslatedText xml:lang="en">DA - Drug Accountability</TranslatedText>
  </Description>

  <ItemRef ItemOID="IT.STUDYID" Mandatory="Yes"/>
  <ItemRef ItemOID="IT.SITEID" Mandatory="Yes"/>
  <ItemRef ItemOID="IT.SUBJID" Mandatory="Yes"/>
  <ItemRef ItemOID="IT.VISIT" Mandatory="No"/>
  <ItemRef ItemOID="IT.VISDAT" Mandatory="No"/>
  <ItemRef ItemOID="IT.DAGRPID" Mandatory="No"/>
  <ItemRef ItemOID="IT.[DATESTCD]_DAPERF" Mandatory="No"/>
  <ItemRef ItemOID="IT.[DATESTCD]_DACAT" Mandatory="No"/>
  <ItemRef ItemOID="IT.[DATESTCD]_DASCAT" Mandatory="No"/>
  <ItemRef ItemOID="IT.[DATESTCD]_DAREFID" Mandatory="No"/>
  <ItemRef ItemOID="IT.[DATESTCD]_DADAT" Mandatory="No"/>
  <ItemRef ItemOID="IT.[DATESTCD]_DAORRES" Mandatory="Yes"/>
  <ItemRef ItemOID="IT.[DATESTCD]_DAORRESU" Mandatory="Yes"/>
 </ItemGroupDef>
 <ItemGroupDef OID="CDASH_2-1_IG_15" Name="DD - Implementation Options: HorizontalGeneric"
  Repeating="No" Domain="DD">
  <Description>
   <TranslatedText xml:lang="en">DD - Death Details</TranslatedText>
  </Description>

  <ItemRef ItemOID="IT.STUDYID" Mandatory="Yes"/>
  <ItemRef ItemOID="IT.SITEID" Mandatory="Yes"/>
  <ItemRef ItemOID="IT.SUBJID" Mandatory="Yes"/>
  <ItemRef ItemOID="IT.VISIT" Mandatory="No"/>
  <ItemRef ItemOID="IT.VISDAT" Mandatory="No"/>
  <ItemRef ItemOID="IT.DDYN" Mandatory="No"/>
  <ItemRef ItemOID="IT.DDCAT" Mandatory="No"/>
  <ItemRef ItemOID="IT.DDSCAT" Mandatory="No"/>
  <ItemRef ItemOID="IT.[DTHDXCD]_DDDAT" Mandatory="No"/>
  <ItemRef ItemOID="IT.DTHDAT" Mandatory="No"/>
  <ItemRef ItemOID="IT.[DTHDXCD]_DDORRES" Mandatory="Yes"/>
  <ItemRef ItemOID="IT.DDEVAL" Mandatory="No"/>
 </ItemGroupDef>
 <ItemGroupDef OID="CDASH_2-1_IG_16" Name="EG - Central Reading" Repeating="No" Domain="EG">
  <Description>
   <TranslatedText xml:lang="en">EG - ECG</TranslatedText>
  </Description>

  <ItemRef ItemOID="IT.STUDYID" Mandatory="Yes"/>
  <ItemRef ItemOID="IT.SITEID" Mandatory="Yes"/>
  <ItemRef ItemOID="IT.SUBJID" Mandatory="Yes"/>
  <ItemRef ItemOID="IT.VISIT" Mandatory="No"/>
  <ItemRef ItemOID="IT.VISDAT" Mandatory="No"/>
  <ItemRef ItemOID="IT.EGCAT" Mandatory="No"/>
  <ItemRef ItemOID="IT.EGSCAT" Mandatory="No"/>
  <ItemRef ItemOID="IT.EGPERF" Mandatory="Yes"/>
  <ItemRef ItemOID="IT.EGREFID" Mandatory="No"/>
  <ItemRef ItemOID="IT.EGMETHOD" Mandatory="No"/>
  <ItemRef ItemOID="IT.EGPOS" Mandatory="No"/>
  <ItemRef ItemOID="IT.EGDAT" Mandatory="No"/>
  <ItemRef ItemOID="IT.EGTPT" Mandatory="No"/>
  <ItemRef ItemOID="IT.EGTIM" Mandatory="No"/>
 </ItemGroupDef>
 <ItemGroupDef OID="CDASH_2-1_IG_17" Name="EG - Local Reading" Repeating="No" Domain="EG">
  <Description>
   <TranslatedText xml:lang="en">EG - ECG</TranslatedText>
  </Description>

  <ItemRef ItemOID="IT.STUDYID" Mandatory="Yes"/>
  <ItemRef ItemOID="IT.SITEID" Mandatory="Yes"/>
  <ItemRef ItemOID="IT.SUBJID" Mandatory="Yes"/>
  <ItemRef ItemOID="IT.VISIT" Mandatory="No"/>
  <ItemRef ItemOID="IT.VISDAT" Mandatory="No"/>
  <ItemRef ItemOID="IT.EGCAT" Mandatory="No"/>
  <ItemRef ItemOID="IT.EGSCAT" Mandatory="No"/>
  <ItemRef ItemOID="IT.EGPERF" Mandatory="Yes"/>
  <ItemRef ItemOID="IT.EGMETHOD" Mandatory="No"/>
  <ItemRef ItemOID="IT.EGPOS" Mandatory="No"/>
  <ItemRef ItemOID="IT.EGDAT" Mandatory="No"/>
  <ItemRef ItemOID="IT.EGTPT" Mandatory="No"/>
  <ItemRef ItemOID="IT.EGTIM" Mandatory="No"/>
  <ItemRef ItemOID="IT.EGTEST" Mandatory="Yes"/>
  <ItemRef ItemOID="IT.EGORRES" Mandatory="Yes"/>
  <ItemRef ItemOID="IT.EGORRESU" Mandatory="No"/>
  <ItemRef ItemOID="IT.EGCLSIG" Mandatory="No"/>
 </ItemGroupDef>
 <ItemGroupDef OID="CDASH_2-1_IG_18" Name="EG - Central Reading with Investigator Assessment"
  Repeating="No" Domain="EG">
  <Description>
   <TranslatedText xml:lang="en">EG - ECG</TranslatedText>
  </Description>

  <ItemRef ItemOID="IT.STUDYID" Mandatory="Yes"/>
  <ItemRef ItemOID="IT.SITEID" Mandatory="Yes"/>
  <ItemRef ItemOID="IT.SUBJID" Mandatory="Yes"/>
  <ItemRef ItemOID="IT.VISIT" Mandatory="No"/>
  <ItemRef ItemOID="IT.VISDAT" Mandatory="No"/>
  <ItemRef ItemOID="IT.EGCAT" Mandatory="No"/>
  <ItemRef ItemOID="IT.EGSCAT" Mandatory="No"/>
  <ItemRef ItemOID="IT.EGPERF" Mandatory="Yes"/>
  <ItemRef ItemOID="IT.EGREFID" Mandatory="No"/>
  <ItemRef ItemOID="IT.EGMETHOD" Mandatory="No"/>
  <ItemRef ItemOID="IT.EGPOS" Mandatory="No"/>
  <ItemRef ItemOID="IT.EGDAT" Mandatory="No"/>
  <ItemRef ItemOID="IT.EGTPT" Mandatory="No"/>
  <ItemRef ItemOID="IT.EGTIM" Mandatory="No"/>
  <ItemRef ItemOID="IT.EGEVAL" Mandatory="No"/>
  <ItemRef ItemOID="IT.INTP_EGORRES" Mandatory="No"/>
  <ItemRef ItemOID="IT.EGCLSIG" Mandatory="Yes"/>
  <ItemRef ItemOID="IT.EGMHNO" Mandatory="No"/>
  <ItemRef ItemOID="IT.EGAENO" Mandatory="No"/>
 </ItemGroupDef>
 <ItemGroupDef OID="CDASH_2-1_IG_19" Name="IE - Inclusion/Exclusion Criteria Not Met" Repeating="No"
  Domain="IE">
  <Description>
   <TranslatedText xml:lang="en">IE - Inclusion/Exclusion Criteria Not Met</TranslatedText>
  </Description>

  <ItemRef ItemOID="IT.STUDYID" Mandatory="Yes"/>
  <ItemRef ItemOID="IT.SITEID" Mandatory="Yes"/>
  <ItemRef ItemOID="IT.SUBJID" Mandatory="Yes"/>
  <ItemRef ItemOID="IT.VISIT" Mandatory="No"/>
  <ItemRef ItemOID="IT.VISDAT" Mandatory="No"/>
  <ItemRef ItemOID="IT.IEYN" Mandatory="Yes"/>
  <ItemRef ItemOID="IT.IEDAT" Mandatory="No"/>
  <ItemRef ItemOID="IT.IECAT" Mandatory="No"/>
  <ItemRef ItemOID="IT.IESCAT" Mandatory="No"/>
  <ItemRef ItemOID="IT.IETESTCD" Mandatory="Yes"/>
  <ItemRef ItemOID="IT.IETEST" Mandatory="No"/>
  <ItemRef ItemOID="IT.IEORRES" Mandatory="Yes"/>
 </ItemGroupDef>
 <ItemGroupDef OID="CDASH_2-1_IG_20" Name="LB - Central Processing" Repeating="No" Domain="LB">
  <Description>
   <TranslatedText xml:lang="en">LB - Labs</TranslatedText>
  </Description>

  <ItemRef ItemOID="IT.STUDYID" Mandatory="Yes"/>
  <ItemRef ItemOID="IT.SITEID" Mandatory="Yes"/>
  <ItemRef ItemOID="IT.SUBJID" Mandatory="Yes"/>
  <ItemRef ItemOID="IT.VISIT" Mandatory="No"/>
  <ItemRef ItemOID="IT.VISDAT" Mandatory="No"/>
  <ItemRef ItemOID="IT.LBPERF" Mandatory="Yes"/>
  <ItemRef ItemOID="IT.LBDAT" Mandatory="No"/>
  <ItemRef ItemOID="IT.LBTIM" Mandatory="No"/>
  <ItemRef ItemOID="IT.LBCAT" Mandatory="No"/>
  <ItemRef ItemOID="IT.LBSCAT" Mandatory="No"/>
  <ItemRef ItemOID="IT.LBTPT" Mandatory="No"/>
  <ItemRef ItemOID="IT.LBCOND" Mandatory="No"/>
  <ItemRef ItemOID="IT.LBFAST" Mandatory="No"/>
  <ItemRef ItemOID="IT.LBREFID" Mandatory="No"/>
 </ItemGroupDef>
 <ItemGroupDef OID="CDASH_2-1_IG_21" Name="LB - Central Processing with CS" Repeating="No"
  Domain="LB">
  <Description>
   <TranslatedText xml:lang="en">LB - Labs</TranslatedText>
  </Description>

  <ItemRef ItemOID="IT.STUDYID" Mandatory="Yes"/>
  <ItemRef ItemOID="IT.SITEID" Mandatory="Yes"/>
  <ItemRef ItemOID="IT.SUBJID" Mandatory="Yes"/>
  <ItemRef ItemOID="IT.VISIT" Mandatory="No"/>
  <ItemRef ItemOID="IT.VISDAT" Mandatory="No"/>
  <ItemRef ItemOID="IT.LBPERF" Mandatory="Yes"/>
  <ItemRef ItemOID="IT.LBDAT" Mandatory="No"/>
  <ItemRef ItemOID="IT.LBTIM" Mandatory="No"/>
  <ItemRef ItemOID="IT.LBCAT" Mandatory="No"/>
  <ItemRef ItemOID="IT.LBSCAT" Mandatory="No"/>
  <ItemRef ItemOID="IT.LBTPT" Mandatory="No"/>
  <ItemRef ItemOID="IT.LBCOND" Mandatory="No"/>
  <ItemRef ItemOID="IT.LBFAST" Mandatory="No"/>
  <ItemRef ItemOID="IT.LBTEST" Mandatory="Yes"/>
  <ItemRef ItemOID="IT.LBORRES" Mandatory="Yes"/>
  <ItemRef ItemOID="IT.LBORRESU" Mandatory="No"/>
  <ItemRef ItemOID="IT.LBCLSIG" Mandatory="Yes"/>
  <ItemRef ItemOID="IT.LBREFID" Mandatory="No"/>
  <ItemRef ItemOID="IT.LBMETHOD" Mandatory="No"/>
 </ItemGroupDef>
 <ItemGroupDef OID="CDASH_2-1_IG_22" Name="LB - Local Processing" Repeating="No" Domain="LB">
  <Description>
   <TranslatedText xml:lang="en">LB - Labs</TranslatedText>
  </Description>

  <ItemRef ItemOID="IT.STUDYID" Mandatory="Yes"/>
  <ItemRef ItemOID="IT.SITEID" Mandatory="Yes"/>
  <ItemRef ItemOID="IT.SUBJID" Mandatory="Yes"/>
  <ItemRef ItemOID="IT.VISIT" Mandatory="No"/>
  <ItemRef ItemOID="IT.VISDAT" Mandatory="No"/>
  <ItemRef ItemOID="IT.LBPERF" Mandatory="Yes"/>
  <ItemRef ItemOID="IT.LBDAT" Mandatory="No"/>
  <ItemRef ItemOID="IT.LBTIM" Mandatory="No"/>
  <ItemRef ItemOID="IT.LBCAT" Mandatory="No"/>
  <ItemRef ItemOID="IT.LBSCAT" Mandatory="No"/>
  <ItemRef ItemOID="IT.LBTPT" Mandatory="No"/>
  <ItemRef ItemOID="IT.LBFAST" Mandatory="No"/>
  <ItemRef ItemOID="IT.LBCOND" Mandatory="No"/>
  <ItemRef ItemOID="IT.LBSPCCND" Mandatory="No"/>
  <ItemRef ItemOID="IT.LBTEST" Mandatory="Yes"/>
  <ItemRef ItemOID="IT.LBORRES" Mandatory="Yes"/>
  <ItemRef ItemOID="IT.LBMETHOD" Mandatory="No"/>
  <ItemRef ItemOID="IT.LBORRESU" Mandatory="No"/>
  <ItemRef ItemOID="IT.LBCRESU" Mandatory="No"/>
  <ItemRef ItemOID="IT.LBTOXGR" Mandatory="No"/>
  <ItemRef ItemOID="IT.LBTOX" Mandatory="No"/>
  <ItemRef ItemOID="IT.LBORNRLO" Mandatory="No"/>
  <ItemRef ItemOID="IT.LBORNRHI" Mandatory="No"/>
  <ItemRef ItemOID="IT.LBNRIND" Mandatory="No"/>
  <ItemRef ItemOID="IT.LBCLSIG" Mandatory="No"/>
  <ItemRef ItemOID="IT.LBNAM" Mandatory="No"/>
 </ItemGroupDef>
 <ItemGroupDef OID="CDASH_2-1_IG_23" Name="MB - Central Processing" Repeating="No" Domain="MB">
  <Description>
   <TranslatedText xml:lang="en">MB - Microbiology Specimen</TranslatedText>
  </Description>

  <ItemRef ItemOID="IT.STUDYID" Mandatory="Yes"/>
  <ItemRef ItemOID="IT.SITEID" Mandatory="Yes"/>
  <ItemRef ItemOID="IT.SUBJID" Mandatory="Yes"/>
  <ItemRef ItemOID="IT.VISIT" Mandatory="No"/>
  <ItemRef ItemOID="IT.VISDAT" Mandatory="No"/>
  <ItemRef ItemOID="IT.MBPERF" Mandatory="No"/>
  <ItemRef ItemOID="IT.MBREFID" Mandatory="No"/>
  <ItemRef ItemOID="IT.MBDAT" Mandatory="No"/>
  <ItemRef ItemOID="IT.MBTIM" Mandatory="No"/>
  <ItemRef ItemOID="IT.MBCAT" Mandatory="No"/>
  <ItemRef ItemOID="IT.MBSCAT" Mandatory="No"/>
  <ItemRef ItemOID="IT.MBSPEC" Mandatory="No"/>
  <ItemRef ItemOID="IT.MBSPCCND" Mandatory="No"/>
  <ItemRef ItemOID="IT.MBLOC" Mandatory="No"/>
  <ItemRef ItemOID="IT.MBLAT" Mandatory="No"/>
  <ItemRef ItemOID="IT.MBDIR" Mandatory="No"/>
 </ItemGroupDef>
 <ItemGroupDef OID="CDASH_2-1_IG_24" Name="MB - Local Processing" Repeating="No" Domain="MB">
  <Description>
   <TranslatedText xml:lang="en">MB - Microbiology Specimen</TranslatedText>
  </Description>

  <ItemRef ItemOID="IT.STUDYID" Mandatory="Yes"/>
  <ItemRef ItemOID="IT.SITEID" Mandatory="Yes"/>
  <ItemRef ItemOID="IT.SUBJID" Mandatory="Yes"/>
  <ItemRef ItemOID="IT.VISIT" Mandatory="No"/>
  <ItemRef ItemOID="IT.VISDAT" Mandatory="No"/>
  <ItemRef ItemOID="IT.MBPERF" Mandatory="No"/>
  <ItemRef ItemOID="IT.MBREFID" Mandatory="No"/>
  <ItemRef ItemOID="IT.MBSPID" Mandatory="No"/>
  <ItemRef ItemOID="IT.MBGRPID" Mandatory="No"/>
  <ItemRef ItemOID="IT.MBLNKID" Mandatory="No"/>
  <ItemRef ItemOID="IT.MBDAT" Mandatory="No"/>
  <ItemRef ItemOID="IT.MBTIM" Mandatory="No"/>
  <ItemRef ItemOID="IT.MBCAT" Mandatory="No"/>
  <ItemRef ItemOID="IT.MBSCAT" Mandatory="No"/>
  <ItemRef ItemOID="IT.MBTEST" Mandatory="Yes"/>
  <ItemRef ItemOID="IT.MBTSTDTL" Mandatory="No"/>
  <ItemRef ItemOID="IT.MBORRES" Mandatory="Yes"/>
  <ItemRef ItemOID="IT.MBORRESU" Mandatory="No"/>
  <ItemRef ItemOID="IT.MBCLSIG" Mandatory="No"/>
  <ItemRef ItemOID="IT.MBRESCAT" Mandatory="No"/>
  <ItemRef ItemOID="IT.MBNAM" Mandatory="No"/>
  <ItemRef ItemOID="IT.MBSPEC" Mandatory="No"/>
  <ItemRef ItemOID="IT.MBSPCCND" Mandatory="No"/>
  <ItemRef ItemOID="IT.MBLOC" Mandatory="No"/>
  <ItemRef ItemOID="IT.MBLAT" Mandatory="No"/>
  <ItemRef ItemOID="IT.MBDIR" Mandatory="No"/>
  <ItemRef ItemOID="IT.MBMETHOD" Mandatory="No"/>
  <ItemRef ItemOID="IT.MBEVAL" Mandatory="No"/>
 </ItemGroupDef>
 <ItemGroupDef OID="CDASH_2-1_IG_25" Name="MI - Central Processing" Repeating="No" Domain="MI">
  <Description>
   <TranslatedText xml:lang="en">MI - Microscopic Findings</TranslatedText>
  </Description>

  <ItemRef ItemOID="IT.STUDYID" Mandatory="Yes"/>
  <ItemRef ItemOID="IT.SITEID" Mandatory="Yes"/>
  <ItemRef ItemOID="IT.SUBJID" Mandatory="Yes"/>
  <ItemRef ItemOID="IT.VISIT" Mandatory="No"/>
  <ItemRef ItemOID="IT.VISDAT" Mandatory="No"/>
  <ItemRef ItemOID="IT.MIPERF" Mandatory="No"/>
  <ItemRef ItemOID="IT.MIREFID" Mandatory="No"/>
  <ItemRef ItemOID="IT.MIDAT" Mandatory="No"/>
  <ItemRef ItemOID="IT.MITIM" Mandatory="No"/>
  <ItemRef ItemOID="IT.MICAT" Mandatory="No"/>
  <ItemRef ItemOID="IT.MISCAT" Mandatory="No"/>
  <ItemRef ItemOID="IT.MISPEC" Mandatory="No"/>
  <ItemRef ItemOID="IT.MISPCCND" Mandatory="No"/>
  <ItemRef ItemOID="IT.MILOC" Mandatory="No"/>
  <ItemRef ItemOID="IT.MILAT" Mandatory="No"/>
  <ItemRef ItemOID="IT.MIDIR" Mandatory="No"/>
 </ItemGroupDef>
 <ItemGroupDef OID="CDASH_2-1_IG_26" Name="MI - Local Processing" Repeating="No" Domain="MI">
  <Description>
   <TranslatedText xml:lang="en">MI - Microscopic Findings</TranslatedText>
  </Description>

  <ItemRef ItemOID="IT.STUDYID" Mandatory="Yes"/>
  <ItemRef ItemOID="IT.SITEID" Mandatory="Yes"/>
  <ItemRef ItemOID="IT.SUBJID" Mandatory="Yes"/>
  <ItemRef ItemOID="IT.VISIT" Mandatory="No"/>
  <ItemRef ItemOID="IT.VISDAT" Mandatory="No"/>
  <ItemRef ItemOID="IT.MIPERF" Mandatory="No"/>
  <ItemRef ItemOID="IT.MIREFID" Mandatory="No"/>
  <ItemRef ItemOID="IT.MISPID" Mandatory="No"/>
  <ItemRef ItemOID="IT.MIDAT" Mandatory="No"/>
  <ItemRef ItemOID="IT.MITIM" Mandatory="No"/>
  <ItemRef ItemOID="IT.MICAT" Mandatory="No"/>
  <ItemRef ItemOID="IT.MISCAT" Mandatory="No"/>
  <ItemRef ItemOID="IT.MITEST" Mandatory="Yes"/>
  <ItemRef ItemOID="IT.MITSTDTL" Mandatory="No"/>
  <ItemRef ItemOID="IT.MIORRES" Mandatory="Yes"/>
  <ItemRef ItemOID="IT.MIORRESU" Mandatory="No"/>
  <ItemRef ItemOID="IT.MICLSIG" Mandatory="No"/>
  <ItemRef ItemOID="IT.MIRESCAT" Mandatory="No"/>
  <ItemRef ItemOID="IT.MINAM" Mandatory="No"/>
  <ItemRef ItemOID="IT.MISPEC" Mandatory="No"/>
  <ItemRef ItemOID="IT.MISPCCND" Mandatory="No"/>
  <ItemRef ItemOID="IT.MILOC" Mandatory="No"/>
  <ItemRef ItemOID="IT.MILAT" Mandatory="No"/>
  <ItemRef ItemOID="IT.MIDIR" Mandatory="No"/>
  <ItemRef ItemOID="IT.MIMETHOD" Mandatory="No"/>
  <ItemRef ItemOID="IT.MIEVAL" Mandatory="No"/>
 </ItemGroupDef>
 <ItemGroupDef OID="CDASH_2-1_IG_27" Name="MS - Central Processing" Repeating="No" Domain="MS">
  <Description>
   <TranslatedText xml:lang="en">MS - Microbiology Susceptibility Test</TranslatedText>
  </Description>

  <ItemRef ItemOID="IT.STUDYID" Mandatory="Yes"/>
  <ItemRef ItemOID="IT.SITEID" Mandatory="Yes"/>
  <ItemRef ItemOID="IT.SUBJID" Mandatory="Yes"/>
  <ItemRef ItemOID="IT.VISIT" Mandatory="No"/>
  <ItemRef ItemOID="IT.VISDAT" Mandatory="No"/>
  <ItemRef ItemOID="IT.MSPERF" Mandatory="No"/>
  <ItemRef ItemOID="IT.MSREFID" Mandatory="No"/>
  <ItemRef ItemOID="IT.MSDAT" Mandatory="No"/>
  <ItemRef ItemOID="IT.MSTIM" Mandatory="No"/>
  <ItemRef ItemOID="IT.MSCAT" Mandatory="No"/>
  <ItemRef ItemOID="IT.MSSCAT" Mandatory="No"/>
  <ItemRef ItemOID="IT.MSSPEC" Mandatory="No"/>
  <ItemRef ItemOID="IT.MSSPCCND" Mandatory="No"/>
  <ItemRef ItemOID="IT.MSLOC" Mandatory="No"/>
  <ItemRef ItemOID="IT.MSLAT" Mandatory="No"/>
  <ItemRef ItemOID="IT.MSDIR" Mandatory="No"/>
 </ItemGroupDef>
 <ItemGroupDef OID="CDASH_2-1_IG_28" Name="MS - Local Processing" Repeating="No" Domain="MS">
  <Description>
   <TranslatedText xml:lang="en">MS - Microbiology Susceptibility Test</TranslatedText>
  </Description>

  <ItemRef ItemOID="IT.STUDYID" Mandatory="Yes"/>
  <ItemRef ItemOID="IT.SITEID" Mandatory="Yes"/>
  <ItemRef ItemOID="IT.SUBJID" Mandatory="Yes"/>
  <ItemRef ItemOID="IT.VISIT" Mandatory="No"/>
  <ItemRef ItemOID="IT.VISDAT" Mandatory="No"/>
  <ItemRef ItemOID="IT.MSPERF" Mandatory="No"/>
  <ItemRef ItemOID="IT.MSREFID" Mandatory="No"/>
  <ItemRef ItemOID="IT.MSSPID" Mandatory="No"/>
  <ItemRef ItemOID="IT.MSLNKID" Mandatory="No"/>
  <ItemRef ItemOID="IT.MSDAT" Mandatory="No"/>
  <ItemRef ItemOID="IT.MSTIM" Mandatory="No"/>
  <ItemRef ItemOID="IT.MSCAT" Mandatory="No"/>
  <ItemRef ItemOID="IT.MSSCAT" Mandatory="No"/>
  <ItemRef ItemOID="IT.MSTEST" Mandatory="Yes"/>
  <ItemRef ItemOID="IT.MSTSTDTL" Mandatory="No"/>
  <ItemRef ItemOID="IT.MSORRES" Mandatory="Yes"/>
  <ItemRef ItemOID="IT.MSORRESU" Mandatory="No"/>
  <ItemRef ItemOID="IT.MSCLSIG" Mandatory="No"/>
  <ItemRef ItemOID="IT.MSRESCAT" Mandatory="No"/>
  <ItemRef ItemOID="IT.MSNAM" Mandatory="No"/>
  <ItemRef ItemOID="IT.MSSPEC" Mandatory="No"/>
  <ItemRef ItemOID="IT.MSSPCCND" Mandatory="No"/>
  <ItemRef ItemOID="IT.MSLOC" Mandatory="No"/>
  <ItemRef ItemOID="IT.MSLAT" Mandatory="No"/>
  <ItemRef ItemOID="IT.MSDIR" Mandatory="No"/>
  <ItemRef ItemOID="IT.MSMETHOD" Mandatory="No"/>
  <ItemRef ItemOID="IT.MSEVAL" Mandatory="No"/>
  <ItemRef ItemOID="IT.NHOID" Mandatory="No"/>
  <ItemRef ItemOID="IT.MSAGENT" Mandatory="No"/>
  <ItemRef ItemOID="IT.MSCONC" Mandatory="No"/>
  <ItemRef ItemOID="IT.MSCONCU" Mandatory="No"/>
 </ItemGroupDef>
 <ItemGroupDef OID="CDASH_2-1_IG_29" Name="PC - PK Sample Collection at Fixed Time Points"
  Repeating="No" Domain="PC">
  <Description>
   <TranslatedText xml:lang="en">PC - Pharmacokinetic Concentrations</TranslatedText>
  </Description>

  <ItemRef ItemOID="IT.STUDYID" Mandatory="Yes"/>
  <ItemRef ItemOID="IT.SITEID" Mandatory="Yes"/>
  <ItemRef ItemOID="IT.SUBJID" Mandatory="Yes"/>
  <ItemRef ItemOID="IT.VISIT" Mandatory="No"/>
  <ItemRef ItemOID="IT.VISDAT" Mandatory="No"/>
  <ItemRef ItemOID="IT.PCPERF" Mandatory="No"/>
  <ItemRef ItemOID="IT.PCSTAT" Mandatory="Yes"/>
  <ItemRef ItemOID="IT.PCREASND" Mandatory="No"/>
  <ItemRef ItemOID="IT.PCDAT" Mandatory="Yes"/>
  <ItemRef ItemOID="IT.PCDATFL" Mandatory="No"/>
  <ItemRef ItemOID="IT.PCTIM" Mandatory="Yes"/>
  <ItemRef ItemOID="IT.PCTPT" Mandatory="No"/>
  <ItemRef ItemOID="IT.PCFAST" Mandatory="No"/>
  <ItemRef ItemOID="IT.PCCOND" Mandatory="No"/>
  <ItemRef ItemOID="IT.PCREFID" Mandatory="No"/>
  <ItemRef ItemOID="IT.PCSPEC" Mandatory="Yes"/>
  <ItemRef ItemOID="IT.PCTEST" Mandatory="No"/>
  <ItemRef ItemOID="IT.PCORRES" Mandatory="No"/>
  <ItemRef ItemOID="IT.PCORRESU" Mandatory="No"/>
 </ItemGroupDef>
 <ItemGroupDef OID="CDASH_2-1_IG_30" Name="PC - PK Sample Collection over a Time Interval"
  Repeating="No" Domain="PC">
  <Description>
   <TranslatedText xml:lang="en">PC - Pharmacokinetic Concentrations</TranslatedText>
  </Description>

  <ItemRef ItemOID="IT.STUDYID" Mandatory="Yes"/>
  <ItemRef ItemOID="IT.SITEID" Mandatory="Yes"/>
  <ItemRef ItemOID="IT.SUBJID" Mandatory="Yes"/>
  <ItemRef ItemOID="IT.VISIT" Mandatory="No"/>
  <ItemRef ItemOID="IT.VISDAT" Mandatory="No"/>
  <ItemRef ItemOID="IT.PCPERF" Mandatory="No"/>
  <ItemRef ItemOID="IT.PCREASND" Mandatory="No"/>
  <ItemRef ItemOID="IT.PCDAT" Mandatory="Yes"/>
  <ItemRef ItemOID="IT.PCTIM" Mandatory="Yes"/>
  <ItemRef ItemOID="IT.PCENDAT" Mandatory="Yes"/>
  <ItemRef ItemOID="IT.PCENTIM" Mandatory="Yes"/>
  <ItemRef ItemOID="IT.PCTPT" Mandatory="No"/>
  <ItemRef ItemOID="IT.PCFAST" Mandatory="No"/>
  <ItemRef ItemOID="IT.PCCOND" Mandatory="No"/>
  <ItemRef ItemOID="IT.PCREFID" Mandatory="No"/>
  <ItemRef ItemOID="IT.PCSPEC" Mandatory="Yes"/>
  <ItemRef ItemOID="IT.PCTEST" Mandatory="No"/>
  <ItemRef ItemOID="IT.PCORRES" Mandatory="No"/>
  <ItemRef ItemOID="IT.PCORRESU" Mandatory="No"/>
 </ItemGroupDef>
 <ItemGroupDef OID="CDASH_2-1_IG_31" Name="PE-Traditional" Repeating="No" Domain="PE">
  <Description>
   <TranslatedText xml:lang="en">PE - Physical Examination</TranslatedText>
  </Description>

  <ItemRef ItemOID="IT.STUDYID" Mandatory="Yes"/>
  <ItemRef ItemOID="IT.SITEID" Mandatory="Yes"/>
  <ItemRef ItemOID="IT.SUBJID" Mandatory="Yes"/>
  <ItemRef ItemOID="IT.VISIT" Mandatory="No"/>
  <ItemRef ItemOID="IT.VISDAT" Mandatory="No"/>
  <ItemRef ItemOID="IT.PEPERF" Mandatory="No"/>
  <ItemRef ItemOID="IT.PECAT" Mandatory="No"/>
  <ItemRef ItemOID="IT.PESCAT" Mandatory="No"/>
  <ItemRef ItemOID="IT.PEDAT" Mandatory="No"/>
  <ItemRef ItemOID="IT.PETIM" Mandatory="No"/>
  <ItemRef ItemOID="IT.PESPID" Mandatory="No"/>
  <ItemRef ItemOID="IT.PETEST" Mandatory="Yes"/>
  <ItemRef ItemOID="IT.PERES" Mandatory="Yes"/>
  <ItemRef ItemOID="IT.PEDESC" Mandatory="Yes"/>
  <ItemRef ItemOID="IT.PECLSIG" Mandatory="No"/>
  <ItemRef ItemOID="IT.PEEVAL" Mandatory="No"/>
  <ItemRef ItemOID="IT.PEREASND" Mandatory="No"/>
  <ItemRef ItemOID="IT.PEBODSYS" Mandatory="No"/>
  <ItemRef ItemOID="IT.PEMODIFY" Mandatory="No"/>
  <ItemRef ItemOID="IT.PELOC" Mandatory="No"/>
  <ItemRef ItemOID="IT.PELAT" Mandatory="No"/>
  <ItemRef ItemOID="IT.PEDIR" Mandatory="No"/>
  <ItemRef ItemOID="IT.PEPORTOT" Mandatory="No"/>
  <ItemRef ItemOID="IT.PEMETHOD" Mandatory="No"/>
 </ItemGroupDef>
 <ItemGroupDef OID="CDASH_2-1_IG_32" Name="RP - Reproductive System Findings" Repeating="No"
  Domain="RP">
  <Description>
   <TranslatedText xml:lang="en">RP - Reproductive System Findings</TranslatedText>
  </Description>

  <ItemRef ItemOID="IT.STUDYID" Mandatory="Yes"/>
  <ItemRef ItemOID="IT.SITEID" Mandatory="Yes"/>
  <ItemRef ItemOID="IT.SUBJID" Mandatory="Yes"/>
  <ItemRef ItemOID="IT.VISIT" Mandatory="No"/>
  <ItemRef ItemOID="IT.VISDAT" Mandatory="No"/>
  <ItemRef ItemOID="IT.RPCAT" Mandatory="No"/>
  <ItemRef ItemOID="IT.RPSCAT" Mandatory="No"/>
  <ItemRef ItemOID="IT.RPPERF" Mandatory="No"/>
  <ItemRef ItemOID="IT.RPREASND" Mandatory="No"/>
  <ItemRef ItemOID="IT.RPYN" Mandatory="No"/>
  <ItemRef ItemOID="IT.RPSPID" Mandatory="No"/>
  <ItemRef ItemOID="IT.RPTEST" Mandatory="Yes"/>
  <ItemRef ItemOID="IT.RPORRES" Mandatory="Yes"/>
  <ItemRef ItemOID="IT.RPORRESU" Mandatory="No"/>
  <ItemRef ItemOID="IT.RPDAT" Mandatory="No"/>
 </ItemGroupDef>
 <ItemGroupDef OID="CDASH_2-1_IG_33" Name="RS - Disease Response" Repeating="No" Domain="RS">
  <Description>
   <TranslatedText xml:lang="en">RS - Disease Response</TranslatedText>
  </Description>

  <ItemRef ItemOID="IT.STUDYID" Mandatory="Yes"/>
  <ItemRef ItemOID="IT.SITEID" Mandatory="Yes"/>
  <ItemRef ItemOID="IT.SUBJID" Mandatory="Yes"/>
  <ItemRef ItemOID="IT.VISIT" Mandatory="No"/>
  <ItemRef ItemOID="IT.VISDAT" Mandatory="No"/>
  <ItemRef ItemOID="IT.RSCAT" Mandatory="No"/>
  <ItemRef ItemOID="IT.RSSCAT" Mandatory="No"/>
  <ItemRef ItemOID="IT.RSPERF" Mandatory="No"/>
  <ItemRef ItemOID="IT.RSREASND" Mandatory="No"/>
  <ItemRef ItemOID="IT.RSEVAL" Mandatory="No"/>
  <ItemRef ItemOID="IT.RSEVALID" Mandatory="No"/>
  <ItemRef ItemOID="IT.RSLNKID" Mandatory="No"/>
  <ItemRef ItemOID="IT.RSLNKGRP" Mandatory="No"/>
  <ItemRef ItemOID="IT.RSTEST" Mandatory="Yes"/>
  <ItemRef ItemOID="IT.RSORRES" Mandatory="Yes"/>
  <ItemRef ItemOID="IT.RSORRESU" Mandatory="Yes"/>
 </ItemGroupDef>
 <ItemGroupDef OID="CDASH_2-1_IG_34" Name="SC - Implementation Options: HorizontalGeneric"
  Repeating="No" Domain="SC">
  <Description>
   <TranslatedText xml:lang="en">SC - Subject Characteristics</TranslatedText>
  </Description>

  <ItemRef ItemOID="IT.STUDYID" Mandatory="Yes"/>
  <ItemRef ItemOID="IT.SITEID" Mandatory="Yes"/>
  <ItemRef ItemOID="IT.SUBJID" Mandatory="Yes"/>
  <ItemRef ItemOID="IT.VISIT" Mandatory="No"/>
  <ItemRef ItemOID="IT.VISDAT" Mandatory="No"/>
  <ItemRef ItemOID="IT.[SCTESTCD]_SCCAT" Mandatory="No"/>
  <ItemRef ItemOID="IT.[SCTESTCD]_SCSCAT" Mandatory="No"/>
  <ItemRef ItemOID="IT.[SCTESTCD]_SCPERF" Mandatory="No"/>
  <ItemRef ItemOID="IT.SCGRPID" Mandatory="No"/>
  <ItemRef ItemOID="IT.[SCTESTCD]_SCORRES" Mandatory="Yes"/>
 </ItemGroupDef>
 <ItemGroupDef OID="CDASH_2-1_IG_35" Name="TR - Tumor Results" Repeating="No" Domain="TR">
  <Description>
   <TranslatedText xml:lang="en">TR - Tumor Results</TranslatedText>
  </Description>

  <ItemRef ItemOID="IT.STUDYID" Mandatory="Yes"/>
  <ItemRef ItemOID="IT.SITEID" Mandatory="Yes"/>
  <ItemRef ItemOID="IT.SUBJID" Mandatory="Yes"/>
  <ItemRef ItemOID="IT.VISIT" Mandatory="No"/>
  <ItemRef ItemOID="IT.VISDAT" Mandatory="No"/>
  <ItemRef ItemOID="IT.TRLNKGRP" Mandatory="No"/>
  <ItemRef ItemOID="IT.TRCAT" Mandatory="No"/>
  <ItemRef ItemOID="IT.TRSCAT" Mandatory="No"/>
  <ItemRef ItemOID="IT.TRSTAT" Mandatory="No"/>
  <ItemRef ItemOID="IT.TRREASND" Mandatory="No"/>
  <ItemRef ItemOID="IT.TREVAL" Mandatory="No"/>
  <ItemRef ItemOID="IT.TREVALID" Mandatory="No"/>
  <ItemRef ItemOID="IT.TRDAT" Mandatory="No"/>
  <ItemRef ItemOID="IT.TRLNKID" Mandatory="No"/>
  <ItemRef ItemOID="IT.TRTEST" Mandatory="Yes"/>
  <ItemRef ItemOID="IT.TRORRES" Mandatory="Yes"/>
  <ItemRef ItemOID="IT.TRORRESU" Mandatory="No"/>
  <ItemRef ItemOID="IT.TRNAM" Mandatory="No"/>
 </ItemGroupDef>
 <ItemGroupDef OID="CDASH_2-1_IG_36" Name="TU - Tumor Identification" Repeating="No" Domain="TU">
  <Description>
   <TranslatedText xml:lang="en">TU - Tumor Identification</TranslatedText>
  </Description>

  <ItemRef ItemOID="IT.STUDYID" Mandatory="Yes"/>
  <ItemRef ItemOID="IT.SITEID" Mandatory="Yes"/>
  <ItemRef ItemOID="IT.SUBJID" Mandatory="Yes"/>
  <ItemRef ItemOID="IT.VISIT" Mandatory="No"/>
  <ItemRef ItemOID="IT.VISDAT" Mandatory="No"/>
  <ItemRef ItemOID="IT.TUCAT" Mandatory="No"/>
  <ItemRef ItemOID="IT.TUSCAT" Mandatory="No"/>
  <ItemRef ItemOID="IT.TUYN" Mandatory="No"/>
  <ItemRef ItemOID="IT.TUDAT" Mandatory="No"/>
  <ItemRef ItemOID="IT.TUEVAL" Mandatory="No"/>
  <ItemRef ItemOID="IT.TUEVALID" Mandatory="No"/>
  <ItemRef ItemOID="IT.TULNKID" Mandatory="Yes"/>
  <ItemRef ItemOID="IT.TUPRNO" Mandatory="No"/>
  <ItemRef ItemOID="IT.TUMETHOD" Mandatory="No"/>
  <ItemRef ItemOID="IT.TUREFID" Mandatory="No"/>
  <ItemRef ItemOID="IT.TUTEST" Mandatory="Yes"/>
  <ItemRef ItemOID="IT.TUORRES" Mandatory="Yes"/>
  <ItemRef ItemOID="IT.TULOC" Mandatory="No"/>
  <ItemRef ItemOID="IT.TULAT" Mandatory="No"/>
  <ItemRef ItemOID="IT.TUDIR" Mandatory="No"/>
  <ItemRef ItemOID="IT.TULOCDTL" Mandatory="No"/>
  <ItemRef ItemOID="IT.TUNAM" Mandatory="No"/>
 </ItemGroupDef>
 <ItemGroupDef OID="CDASH_2-1_IG_37" Name="VS - Implementation Options: HorizontalGeneric"
  Repeating="No" Domain="VS">
  <Description>
   <TranslatedText xml:lang="en">VS - Vital Signs</TranslatedText>
  </Description>

  <ItemRef ItemOID="IT.STUDYID" Mandatory="Yes"/>
  <ItemRef ItemOID="IT.SITEID" Mandatory="Yes"/>
  <ItemRef ItemOID="IT.SUBJID" Mandatory="Yes"/>
  <ItemRef ItemOID="IT.VISIT" Mandatory="No"/>
  <ItemRef ItemOID="IT.VISDAT" Mandatory="No"/>
  <ItemRef ItemOID="IT.[VSTESTCD]_VSPERF" Mandatory="No"/>
  <ItemRef ItemOID="IT.[VSTESTCD]_VSDAT" Mandatory="No"/>
  <ItemRef ItemOID="IT.[VSTESTCD]_VSTIM" Mandatory="No"/>
  <ItemRef ItemOID="IT.VSCAT" Mandatory="No"/>
  <ItemRef ItemOID="IT.VSSCAT" Mandatory="No"/>
  <ItemRef ItemOID="IT.VSGRPID" Mandatory="No"/>
  <ItemRef ItemOID="IT.[VSTESTCD]_VSTPT" Mandatory="No"/>
  <ItemRef ItemOID="IT.[VSTESTCD]_VSSTAT" Mandatory="No"/>
  <ItemRef ItemOID="IT.[VSTESTCD]_VSORRES" Mandatory="Yes"/>
  <ItemRef ItemOID="IT.[VSTESTCD]_VSORRESU" Mandatory="No"/>
  <ItemRef ItemOID="IT.[VSTESTCD]_VSCLSIG" Mandatory="No"/>
  <ItemRef ItemOID="IT.[VSTESTCD]_VSPOS" Mandatory="No"/>
  <ItemRef ItemOID="IT.[VSTESTCD]_VSLOC" Mandatory="No"/>
  <ItemRef ItemOID="IT.[VSTESTCD]_VSLAT" Mandatory="No"/>
 </ItemGroupDef>
 <ItemGroupDef OID="CDASH_2-1_IG_38" Name="FA - Findings About Events or Interventions"
  Repeating="No" Domain="FA">
  <Description>
   <TranslatedText xml:lang="en">FA - Findings About Events or Interventions</TranslatedText>
  </Description>

  <ItemRef ItemOID="IT.STUDYID" Mandatory="Yes"/>
  <ItemRef ItemOID="IT.SITEID" Mandatory="Yes"/>
  <ItemRef ItemOID="IT.SUBJID" Mandatory="Yes"/>
  <ItemRef ItemOID="IT.FAOBJ" Mandatory="Yes"/>
  <ItemRef ItemOID="IT.FAYN" Mandatory="No"/>
  <ItemRef ItemOID="IT.FAPERF" Mandatory="No"/>
  <ItemRef ItemOID="IT.FATEST" Mandatory="Yes"/>
  <ItemRef ItemOID="IT.FATSTDTL" Mandatory="No"/>
  <ItemRef ItemOID="IT.FACAT" Mandatory="No"/>
  <ItemRef ItemOID="IT.FASCAT" Mandatory="No"/>
  <ItemRef ItemOID="IT.FAPOS" Mandatory="No"/>
  <ItemRef ItemOID="IT.FAORRES" Mandatory="Yes"/>
  <ItemRef ItemOID="IT.FAORRESU" Mandatory="No"/>
  <ItemRef ItemOID="IT.FAORNRLO" Mandatory="No"/>
  <ItemRef ItemOID="IT.FAORNRHI" Mandatory="No"/>
  <ItemRef ItemOID="IT.FANRIND" Mandatory="No"/>
  <ItemRef ItemOID="IT.FASTAT" Mandatory="No"/>
  <ItemRef ItemOID="IT.FAREASND" Mandatory="No"/>
  <ItemRef ItemOID="IT.FASPEC" Mandatory="No"/>
  <ItemRef ItemOID="IT.FASPCCND" Mandatory="No"/>
  <ItemRef ItemOID="IT.FALOC" Mandatory="No"/>
  <ItemRef ItemOID="IT.FALAT" Mandatory="No"/>
  <ItemRef ItemOID="IT.FADIR" Mandatory="No"/>
  <ItemRef ItemOID="IT.FAPORTOT" Mandatory="No"/>
  <ItemRef ItemOID="IT.FAMETHOD" Mandatory="No"/>
  <ItemRef ItemOID="IT.FALEAD" Mandatory="No"/>
  <ItemRef ItemOID="IT.FAFAST" Mandatory="No"/>
  <ItemRef ItemOID="IT.FAEVAL" Mandatory="No"/>
  <ItemRef ItemOID="IT.FAEVALID" Mandatory="No"/>
  <ItemRef ItemOID="IT.FACLSIG" Mandatory="No"/>
 </ItemGroupDef>
 <ItemGroupDef OID="CDASH_2-1_IG_39" Name="SR - Skin Response" Repeating="No" Domain="SR">
  <Description>
   <TranslatedText xml:lang="en">SR - Skin Response</TranslatedText>
  </Description>

  <ItemRef ItemOID="IT.STUDYID" Mandatory="Yes"/>
  <ItemRef ItemOID="IT.SITEID" Mandatory="Yes"/>
  <ItemRef ItemOID="IT.SUBJID" Mandatory="Yes"/>
  <ItemRef ItemOID="IT.VISIT" Mandatory="No"/>
  <ItemRef ItemOID="IT.VISDAT" Mandatory="No"/>
  <ItemRef ItemOID="IT.SRPERF" Mandatory="No"/>
  <ItemRef ItemOID="IT.SRREASND" Mandatory="No"/>
  <ItemRef ItemOID="IT.SRCAT" Mandatory="No"/>
  <ItemRef ItemOID="IT.SRSCAT" Mandatory="No"/>
  <ItemRef ItemOID="IT.SRSPID" Mandatory="No"/>
  <ItemRef ItemOID="IT.SROBJ" Mandatory="Yes"/>
  <ItemRef ItemOID="IT.SRRFTDAT" Mandatory="No"/>
  <ItemRef ItemOID="IT.SRRFTTIM" Mandatory="No"/>
  <ItemRef ItemOID="IT.SRLOC" Mandatory="No"/>
  <ItemRef ItemOID="IT.SRLAT" Mandatory="No"/>
  <ItemRef ItemOID="IT.SRTEST" Mandatory="Yes"/>
  <ItemRef ItemOID="IT.SRTPT" Mandatory="No"/>
  <ItemRef ItemOID="IT.SRDAT" Mandatory="No"/>
  <ItemRef ItemOID="IT.SRTIM" Mandatory="No"/>
  <ItemRef ItemOID="IT.SRDIR" Mandatory="No"/>
  <ItemRef ItemOID="IT.SREVAL" Mandatory="No"/>
  <ItemRef ItemOID="IT.SREVALID" Mandatory="No"/>
  <ItemRef ItemOID="IT.SRORRES" Mandatory="Yes"/>
  <ItemRef ItemOID="IT.SRORRESU" Mandatory="No"/>
  <ItemRef ItemOID="IT.SRNRIND" Mandatory="No"/>
  <ItemRef ItemOID="IT.SRCLSIG" Mandatory="No"/>
 </ItemGroupDef>
 <ItemDef OID="IT.STUDYID" Name="STUDYID" DataType="text">
  <Description>
   <TranslatedText xml:lang="en">STUDYID</TranslatedText>
  </Description>
  <Question>
   <TranslatedText xml:lang="en">What is the study identifier?</TranslatedText>
  </Question>
  <Alias Context="prompt" Name="[Protocol/Study]"/>
  <Alias Context="implementationNotes"
   Name="While this field is not typically captured on a CRF, it should be displayed clearly on the CRF and/or the EDC system. This field can be included into the database or populated during SDTM-based dataset creation before submission."/>
  <Alias Context="mappingInstructions"
   Name="Maps directly to the SDTMIG variable listed in the column with the heading SDTMIG Target."
  />
 </ItemDef>
 <ItemDef OID="IT.SITEID" Name="SITEID" DataType="text">
  <Description>
   <TranslatedText xml:lang="en">SITEID</TranslatedText>
  </Description>
  <Question>
   <TranslatedText xml:lang="en">What is the site identifier?</TranslatedText>
  </Question>
  <Alias Context="prompt" Name="Site (Identifier)"/>
  <Alias Context="implementationNotes"
   Name="Paper: This is typically preprinted in the header of each CRF page for single site studies. For studies with multiple sites, this field may be left blank so that the number can be recorded by the site, or it may be preprinted for the CRFs that are shipped to each site. EDC: This should be prepopulated."/>
  <Alias Context="mappingInstructions"
   Name="Maps directly to the SDTMIG variable listed in the column with the heading SDTMIG Target."
  />
 </ItemDef>
 <ItemDef OID="IT.SUBJID" Name="SUBJID" DataType="text">
  <Description>
   <TranslatedText xml:lang="en">SUBJID</TranslatedText>
  </Description>
  <Question>
   <TranslatedText xml:lang="en">What [is/was] the (study) [subject/participant]
    identifier?</TranslatedText>
  </Question>
  <Alias Context="prompt" Name="[Subject/Participant] (Identifier)"/>
  <Alias Context="completionInstructions" Name="Record the identifier for the subject."/>
  <Alias Context="implementationNotes"
   Name="Paper: This is typically recorded in the header of each CRF page. EDC: The subject identifiers may be system generated. This CDASH variable is typically collected in all CDASH domains. However, this CDASH variable is populated only in the SDTMIG DM domain. For more information, refer to the SDTM Implementation Guide."/>
  <Alias Context="mappingInstructions"
   Name="Maps directly to the SDTMIG variable listed in the column with the heading SDTMIG Target."
  />
 </ItemDef>
 <ItemDef OID="IT.COVAL" Name="COVAL" DataType="text">
  <Description>
   <TranslatedText xml:lang="en">COVAL</TranslatedText>
  </Description>
  <Question>
   <TranslatedText xml:lang="en">[protocol-specified targeted question]</TranslatedText>
  </Question>
  <Alias Context="prompt" Name="[abbreviated version of the protocol-specified targeted question]"/>
  <Alias Context="completionInstructions" Name="[protocol specific]"/>
  <Alias Context="implementationNotes"
   Name="If an additional free-text field is needed to provide more information about a particular record, use the COVAL variable to collect the free text, and associate the free text (comment) with the original record using RDOMAIN, IDVAR, IDVARVAL."/>
  <Alias Context="mappingInstructions"
   Name="Maps directly to the SDTMIG variable listed in the column with the heading SDTMIG Target. RDOMAIN contains the domain to which is related to the comment."
  />
 </ItemDef>
 <ItemDef OID="IT.BRTHDAT" Name="BRTHDAT" DataType="date">
  <Description>
   <TranslatedText xml:lang="en">BRTHDAT</TranslatedText>
  </Description>
  <Question>
   <TranslatedText xml:lang="en">What is the subject&apos;s date of birth?</TranslatedText>
  </Question>
  <Alias Context="prompt" Name="Birth Date"/>
  <Alias Context="completionInstructions"
   Name="Record the date of birth to the level of precision known (e.g., day/month/year, year, month/year, etc.) in this format (DD-MON-YYYY)."/>
  <Alias Context="implementationNotes"
   Name="BRTHDAT is the collected field used for recording the full birth date. The sponsor may choose to database the date of birth as a single variable (BRTHDAT), or as separate variables for each component of the date/time (BRTHYY, BRTHMO, BRTHDD, BRTHTIM). The sponsor may choose a method based on database considerations, or for regulatory reasons. It is expected that what is collected for BRTHDAT (complete date or whichever components are collected) is reported in the SDTMIG variable BRTHDTC in the ISO 8601 format. If data are collected in a manner resulting in a reduced precision level, then the AGE (SDTM expected variable), if not collected on the CRF, should be derived using a documented algorithm that describes how the age was determined and/or imputed for those birth dates collected with reduced precision."/>
  <Alias Context="mappingInstructions"
   Name="This does not map directly to an SDTMIG variable. For the SDTM submission dataset, concatenate all collected CDASH DATE and TIME components and populate the SDTMIG variable BRTHDTC in ISO 8601 format."
  />
 </ItemDef>
 <ItemDef OID="IT.BRTHDD" Name="BRTHDD" DataType="text">
  <Description>
   <TranslatedText xml:lang="en">BRTHDD</TranslatedText>
  </Description>
  <Question>
   <TranslatedText xml:lang="en">What is the subject&apos;s day of birth?</TranslatedText>
  </Question>
  <Alias Context="prompt" Name="Birth Day"/>
  <Alias Context="completionInstructions"
   Name="Record the subject&apos;s day of birth (e.g., 01 or 31)."/>
  <Alias Context="implementationNotes"
   Name="Day of Birth is the collected variable used for recording the day component of the Date of Birth. The sponsor may choose to database the date of birth as a single variable (BRTHDAT), or as separate variables for each component of the date/time (BRTHYY, BRTHMO, BRTHDD, BRTHTIM). The sponsor may choose a method based on database considerations, or for regulatory reasons. It is expected that what is collected for BRTHDAT (complete date or whichever components are collected) is reported in the SDTMIG variable BRTHDTC in the ISO 8601 format. If data are collected in a manner resulting in a reduced precision level, then the AGE (SDTM expected variable), if not collected on the CRF, should be derived using a documented algorithm that describes how the age was derived and/or imputed for those birth dates collected with reduced precision."/>
  <Alias Context="mappingInstructions"
   Name="This does not map directly to an SDTMIG variable. For the SDTM submission dataset, concatenate all collected CDASH DATE and TIME components and populate the SDTMIG variable BRTHDTC in ISO 8601 format."
  />
 </ItemDef>
 <ItemDef OID="IT.BRTHMO" Name="BRTHMO" DataType="text">
  <Description>
   <TranslatedText xml:lang="en">BRTHMO</TranslatedText>
  </Description>
  <Question>
   <TranslatedText xml:lang="en">What is the subject&apos;s month of birth?</TranslatedText>
  </Question>
  <Alias Context="prompt" Name="Birth Month"/>
  <Alias Context="completionInstructions"
   Name="Record the subject&apos;s month of birth [e.g., (in local language short month format) (JAN-DEC) or (ENE-DIE) or (JAN-DEZ), etc.]."/>
  <Alias Context="implementationNotes"
   Name="Month of Birth is the collected variable used for recording the month component of the Date of Birth. The sponsor may choose to database the date of birth as a single variable (BRTHDAT), or as separate variables for each component of the date/time (BRTHYY, BRTHMO, BRTHDD, BRTHTIM). The sponsor may choose a method based on database considerations, or for regulatory reasons. It is expected that what is collected for BRTHDAT (complete date or whichever components are collected) is reported in the SDTMIG variable BRTHDTC in the ISO 8601 format. If data are collected in a manner resulting in a reduced precision level, then the AGE (SDTM expected variable), if not collected on the CRF, should be derived using a documented algorithm that describes how the age was derived and/or imputed for those birth dates collected with reduced precision."/>
  <Alias Context="mappingInstructions"
   Name="This does not map directly to an SDTMIG variable. For the SDTM submission dataset, concatenate all collected CDASH DATE and TIME components and populate the SDTMIG variable BRTHDTC in ISO 8601 format."
  />
 </ItemDef>
 <ItemDef OID="IT.BRTHYY" Name="BRTHYY" DataType="text">
  <Description>
   <TranslatedText xml:lang="en">BRTHYY</TranslatedText>
  </Description>
  <Question>
   <TranslatedText xml:lang="en">What is the subject&apos;s year of birth?</TranslatedText>
  </Question>
  <Alias Context="prompt" Name="Birth Year"/>
  <Alias Context="completionInstructions"
   Name="Record the subject&apos;s year of birth (e.g., YYYY, a four-digit year)."/>
  <Alias Context="implementationNotes"
   Name="Year of Birth is the collected variable used for recording the year component of the Date of Birth. The sponsor may choose to database the date of birth as a single variable (BRTHDAT), or as separate variables for each component of the date/time (BRTHYY, BRTHMO, BRTHDD, BRTHTIM). The sponsor may choose a method based on database considerations, or for regulatory reasons. It is expected that what is collected for BRTHDAT (complete date or whichever components are collected) is reported in the SDTMIG variable BRTHDTC in the ISO 8601 format. If data are collected in a manner resulting in a reduced precision level, then the AGE (SDTM expected variable), if not collected on the CRF, should be derived using a documented algorithm that describes how the age was derived and/or imputed for those birth dates collected with reduced precision."/>
  <Alias Context="mappingInstructions"
   Name="This does not map directly to an SDTMIG variable. For the SDTM submission dataset, concatenate all collected CDASH DATE and TIME components and populate the SDTMIG variable BRTHDTC in ISO 8601 format."
  />
 </ItemDef>
 <ItemDef OID="IT.BRTHTIM" Name="BRTHTIM" DataType="time">
  <Description>
   <TranslatedText xml:lang="en">BRTHTIM</TranslatedText>
  </Description>
  <Question>
   <TranslatedText xml:lang="en">What is the subject&apos;s time of birth?</TranslatedText>
  </Question>
  <Alias Context="prompt" Name="Birth Time"/>
  <Alias Context="completionInstructions"
   Name="Record the time of birth (as completely as possible)."/>
  <Alias Context="implementationNotes"
   Name="The level of detail collected by Time of Birth may be necessary for analysis for some pediatric, natal or neonatal studies. The sponsor may choose to database the date of birth as a single variable (BRTHDAT), or as separate variables for each component of the date/time (BRTHYY, BRTHMO, BRTHDD, BRTHTIM). The sponsor may choose a method based on database considerations, or for regulatory reasons. It is expected that what is collected for BRTHDAT (complete date or whichever components are collected) is reported in the SDTMIG variable BRTHDTC in the ISO 8601 format. If data are collected in a manner resulting in a reduced precision level, then the AGE (SDTMIG expected variable), if not collected on the CRF, should be derived using a documented algorithm that describes how the age was derived and/or imputed for those birth dates collected with reduced precision."/>
  <Alias Context="mappingInstructions"
   Name="This does not map directly to an SDTMIG variable. For the SDTM submission dataset, concatenate all collected CDASH DATE and TIME components and populate the SDTMIG variable BRTHDTC in ISO 8601 format."
  />
 </ItemDef>
 <ItemDef OID="IT.AGE" Name="AGE" DataType="Num">
  <Description>
   <TranslatedText xml:lang="en">AGE</TranslatedText>
  </Description>
  <Question>
   <TranslatedText xml:lang="en">What is the subject&apos;s age?</TranslatedText>
  </Question>
  <Alias Context="prompt" Name="Age"/>
  <Alias Context="completionInstructions" Name="Record age of the subject."/>
  <Alias Context="implementationNotes"
   Name="If Age is collected, it should be collected as a number and, to be correctly interpreted, the age value should be associated to a variable for the Age Unit. It may be necessary to know when the age was collected as an age may need to be recalculated for analysis, such as deriving age at a reference start time (RFSTDTC for SDTM). BRTHDTC may not be available in all cases (due to subject privacy concerns).If AGE is collected, then it is recommended that the date of collection also be recorded, either separately or by association to the date of the visit."/>
  <Alias Context="mappingInstructions"
   Name="Maps directly to the SDTMIG variable listed in the column with the heading SDTMIG Target."
  />
 </ItemDef>
 <ItemDef OID="IT.AGEU" Name="AGEU" DataType="text">
  <Description>
   <TranslatedText xml:lang="en">AGEU</TranslatedText>
  </Description>
  <Question>
   <TranslatedText xml:lang="en">What is the age unit used?</TranslatedText>
  </Question>
  <CodeListRef CodeListOID="CL.C66781.AGEU"/>
  <Alias Context="prompt" Name="Age Unit"/>
  <Alias Context="completionInstructions"
   Name="Record the appropriate age unit (e.g., YEARS, MONTHS, WEEKS, etc.)."/>
  <Alias Context="implementationNotes"
   Name="If Age is captured on the CRF, the age unit must be known to make the age value meaningful. The age unit might be collected on the CRF, in those cases where the protocol allows for any age group, or it may be preprinted on the CRF (typically with the unit of &quot;years&quot;)."/>
  <Alias Context="mappingInstructions"
   Name="Maps directly to the SDTMIG variable listed in the column with the heading SDTMIG Target."
  />
 </ItemDef>
 <ItemDef OID="IT.DMDAT" Name="DMDAT" DataType="date">
  <Description>
   <TranslatedText xml:lang="en">DMDAT</TranslatedText>
  </Description>
  <Question>
   <TranslatedText xml:lang="en">What is the date of collection?</TranslatedText>
  </Question>
  <Alias Context="prompt" Name="Collection Date"/>
  <Alias Context="completionInstructions"
   Name="Record the date of collection using this format (DD-MON-YYYY)."/>
  <Alias Context="implementationNotes"
   Name="The date of collection may be determined from the date of visit; if so, a separate date field is not needed."/>
  <Alias Context="mappingInstructions"
   Name="This does not map directly to an SDTMIG variable. For the SDTM submission dataset, concatenate all collected CDASH DATE and TIME components and populate the SDTMIG variable DMDTC in ISO 8601 format."
  />
 </ItemDef>
 <ItemDef OID="IT.SEX" Name="SEX" DataType="text">
  <Description>
   <TranslatedText xml:lang="en">SEX</TranslatedText>
  </Description>
  <Question>
   <TranslatedText xml:lang="en">What is the sex of the subject?</TranslatedText>
  </Question>
  <CodeListRef CodeListOID="CL.C66731.SEX"/>
  <Alias Context="prompt" Name="Sex"/>
  <Alias Context="completionInstructions"
   Name="Record the appropriate sex (e.g., F (female), M (male)."/>
  <Alias Context="implementationNotes"
   Name="Collect the subject&apos;s sex or gender, as reported by the investigator. This is a phenotypic assessment and not a genotypic assessment."/>
  <Alias Context="mappingInstructions"
   Name="Maps directly to the SDTMIG variable listed in the column with the heading SDTMIG Target."
  />
 </ItemDef>
 <ItemDef OID="IT.ETHNIC" Name="ETHNIC" DataType="text">
  <Description>
   <TranslatedText xml:lang="en">ETHNIC</TranslatedText>
  </Description>
  <Question>
   <TranslatedText xml:lang="en">Do you consider yourself Hispanic/Latino or not
    Hispanic/Latino?</TranslatedText>
  </Question>
  <CodeListRef CodeListOID="CL.C66790.ETHNIC"/>
  <Alias Context="prompt" Name="Ethnicity"/>
  <Alias Context="completionInstructions"
   Name="Study participants should self-report ethnicity, with ethnicity being asked about before race."/>
  <Alias Context="implementationNotes"
   Name="For use when values are being collected using the exact non-extensible ETHNIC codelist (C66790) values. Sponsors should refer to the FDA&apos;s Collection of Race and Ethnicity Data in Clinical Trials guidance regarding the collection of ethnicity (http://www.fda.gov/)."/>
  <Alias Context="mappingInstructions"
   Name="Maps directly to the SDTMIG variable listed in the column with the heading SDTMIG Target."
  />
 </ItemDef>
 <ItemDef OID="IT.CETHNIC" Name="CETHNIC" DataType="text">
  <Description>
   <TranslatedText xml:lang="en">CETHNIC</TranslatedText>
  </Description>
  <Question>
   <TranslatedText xml:lang="en">What is the ethnicity of the subject?</TranslatedText>
  </Question>
  <CodeListRef CodeListOID="CL.C128690.ETHNICC"/>
  <Alias Context="prompt" Name="Ethnicity"/>
  <Alias Context="completionInstructions"
   Name="Study participants should self-report ethnicity, with ethnicity being asked about before race."/>
  <Alias Context="implementationNotes"
   Name="Use when values are collected using the NCI Thesaurus codelist for Ethnicity As Collected (C128690), the extended HL7 hierarchy of codelist values, or other regulatory agency-specific controlled terminology for Ethnic Group. Sponsors may append a suffix to denote multiple collected ethnicities (e.g. CETHNIC1, CETHNIC2)."/>
  <Alias Context="mappingInstructions"
   Name="This does not map directly to an SDTMIG variable. This information could be submitted in a SUPPDM dataset as the value of SUPPDM.QVAL where SUPPDM.QNAM = &quot;CETHNIC&quot; and SUPPDM.QLABEL= &quot;Collected Ethnicity&quot;. See SDTMIG v3.2 Section 5, DM Domain. Refer to the current SDTM and SDTMIG for instructions on placement of non-standard variables in SDTM domains."
  />
 </ItemDef>
 <ItemDef OID="IT.RACE" Name="RACE" DataType="text">
  <Description>
   <TranslatedText xml:lang="en">RACE</TranslatedText>
  </Description>
  <Question>
   <TranslatedText xml:lang="en">Which of the following five racial designations best describes you?
    (More than one choice is acceptable.)</TranslatedText>
  </Question>
  <CodeListRef CodeListOID="CL.C74457.RACE"/>
  <Alias Context="prompt" Name="Race"/>
  <Alias Context="completionInstructions"
   Name="Study participants should self-report race, with race being asked about after ethnicity."/>
  <Alias Context="implementationNotes"
   Name="Use RACE when the 5 designations for race used by the FDA are collected (American Indian or Alaska Native; Asian; Black or African American; Native Hawaiian or Other Pacific Islander ; White).* Sponsors should refer to the FDA Guidance. See SDTMIG v3.2 Section 5, DM Domain. 
 *For studies where data are collected outside the US, the recommended categories are the same except for Black instead of Black or African American. If multiple races are collected, an alternate sponsor-defined variable structure would be required. Sponsors may record multiple self-reported races for a subject by appending a suffix to denote multiple collected races (e.g. RACE1, RACE2) and populate RACE with the value MULTIPLE."/>
  <Alias Context="mappingInstructions"
   Name="Maps directly to the SDTMIG variable listed in the column with the heading SDTMIG Target."
  />
 </ItemDef>
 <ItemDef OID="IT.CRACE" Name="CRACE" DataType="text">
  <Description>
   <TranslatedText xml:lang="en">CRACE</TranslatedText>
  </Description>
  <Question>
   <TranslatedText xml:lang="en">Which of the following racial designations best describes you?
    (More than one choice is acceptable.)</TranslatedText>
  </Question>
  <CodeListRef CodeListOID="CL.C128689.RACEC"/>
  <Alias Context="prompt" Name="Race"/>
  <Alias Context="completionInstructions"
   Name="Study participants should self-report race, with race being asked about after ethnicity. (The FDA guidance suggests that individuals be permitted to designate a multiracial identity. Check all that apply at the time of collection)."/>
  <Alias Context="implementationNotes"
   Name="Use CRACE when more detailed race categorizations are desired (e.g., more than the 5 minimum designations for race used by the FDA). The use of race and vocabulary tables located within the HL7 Reference Information Model Structural Vocabulary Tables is recommended, as they are designed to collapse up to the SDTM variable RACE with CT (e.g., American Indian or Alaska Native Asian; Black or African American; Native Hawaiian or Other Pacific Islander; White ).* If sponsors choose to map the extended Race codelist values to RACE CT (e.g., Japanese to Asian), then this mapped variable would be reported using the SDTMIG variable RACE. Sponsors should refer to the FDA Guidance. 
 *For studies where data are collected outside the US, the recommended categories are the same except for Black instead of Black or African American. If multiple races are collected, an alternate sponsor-defined variable structure would be required. Sponsors may record multiple self-reported races for a subject by appending a suffix to denote multiple collected races (e.g. CRACE1, CRACE2) and populate CRACE with the value MULTIPLE."/>
  <Alias Context="mappingInstructions"
   Name="This does not map directly to an SDTMIG variable. This information could be submitted in a SUPPDM dataset as the value of SUPPDM.QVAL when SUPPDM.QNAM = &quot;CRACE&quot; and SUPPDM.QLABEL=&quot;Collected Race&quot;. See SDTMIG v3.2 Section 5 for the DM Domain."
  />
 </ItemDef>
 <ItemDef OID="IT.RACEOTH" Name="RACEOTH" DataType="text">
  <Description>
   <TranslatedText xml:lang="en">RACEOTH</TranslatedText>
  </Description>
  <Question>
   <TranslatedText xml:lang="en">What was the other race?</TranslatedText>
  </Question>
  <Alias Context="prompt" Name="Specify Other Race"/>
  <Alias Context="completionInstructions"
   Name="If none of the pre-printed values for RACE are applicable or if another, unprinted selection should be added to those pre-printed values, record the value in this free text field."/>
  <Alias Context="implementationNotes"
   Name="When creating the DM form, it is suggested that the 5 standard race categories be included. Sponsors may choose to include another value of Specify, Other with a free-text field for extending the list of values. The RACEOTH variable contains the free text added by the site. The value(s) added in the optional variable might or might not &quot;collapse up&quot; into one of the 5 categories specified by the FDA Guidance. See SDTMIG v3.2, Section 5 -DM Domain for examples of reporting this implementation."/>
  <Alias Context="mappingInstructions"
   Name="This does not map directly to an SDTMIG variable. This information could be submitted in a SUPPDM dataset as the value of SUPPDM.QVAL where SUPPDM.QNAM = &quot;RACEOTH&quot; and SUPP.QLABEL=&quot;RACE OTHER&quot;. See SDTMIG v3.2 Section 5, DM Domain. Refer to the current SDTM and SDTMIG for instructions on placement of non-standard variables in SDTM domains."
  />
 </ItemDef>
 <ItemDef OID="IT.CMCAT" Name="CMCAT" DataType="text">
  <Description>
   <TranslatedText xml:lang="en">CMCAT</TranslatedText>
  </Description>
  <Question>
   <TranslatedText xml:lang="en">What is the category for the (concomitant)
    [medication/treatment/therapy]?</TranslatedText>
  </Question>
  <Alias Context="prompt" Name="(Concomitant) [Medication/Treatment/Therapy Category]; NULL"/>
  <Alias Context="completionInstructions"
   Name="Record the (concomitant) [medication/treatment/therapy] category, if not pre-printed on the CRF."/>
  <Alias Context="implementationNotes"
   Name="Sponsor-defined controlled terminology. This would most commonly be either a heading, or a preprinted category value on the CRF and not a question to which the site would provide an answer. If a question is asked, the response would typically be a sponsor-defined codelist. If the form is laid out as a grid, then words such as &quot;Category&quot; can be included as the column header."/>
  <Alias Context="mappingInstructions"
   Name="Maps directly to the SDTMIG variable listed in the column with the heading &quot;SDTMIG Target&quot;."
  />
 </ItemDef>
 <ItemDef OID="IT.CMSCAT" Name="CMSCAT" DataType="text">
  <Description>
   <TranslatedText xml:lang="en">CMSCAT</TranslatedText>
  </Description>
  <Question>
   <TranslatedText xml:lang="en">What is the subcategory for the (concomitant)
    [medication/treatment/therapy]?</TranslatedText>
  </Question>
  <Alias Context="prompt" Name="(Concomitant) [Medication/Treatment/Therapy subcategory]; NULL"/>
  <Alias Context="completionInstructions"
   Name="Record (concomitant) [medication/treatment/therapy] subcategory, if not pre-printed on the CRF."/>
  <Alias Context="implementationNotes"
   Name="Sponsor-defined controlled terminology. This would most commonly be pre-printed on the CRF or screen and prepopulated in the data management system. This is not typically a question to which the site would provide an answer."/>
  <Alias Context="mappingInstructions"
   Name="Maps directly to the SDTMIG variable listed in the column with the heading &quot;SDTMIG Target&quot;."
  />
 </ItemDef>
 <ItemDef OID="IT.CMYN" Name="CMYN" DataType="text">
  <Description>
   <TranslatedText xml:lang="en">CMYN</TranslatedText>
  </Description>
  <Question>
   <TranslatedText xml:lang="en">Were/Was any (concomitant)
    [medication(s)/treatment(s)/therapy(ies)] taken?</TranslatedText>
  </Question>
  <CodeListRef CodeListOID="CL.C66742.NY"/>
  <Alias Context="prompt" Name="Any (Concomitant) [Medication(s)/Treatment(s)/Therapy(ies)]"/>
  <Alias Context="completionInstructions"
   Name="Indicate if the subject took any (concomitant) [medications/treatments]. If Yes, include the appropriate details where indicated on the CRF."/>
  <Alias Context="implementationNotes"
   Name="The intent/purpose of collecting this field is to help with data cleaning and monitoring. It provides verification that all other fields on the CRF were deliberately left blank."/>
  <Alias Context="mappingInstructions"
   Name="Does not map to an SDTMIG variable. The SDTM Annotated CRF is annotated to indicate that this field is NOT SUBMITTED."
  />
 </ItemDef>
 <ItemDef OID="IT.CMSPID" Name="CMSPID" DataType="text">
  <Description>
   <TranslatedText xml:lang="en">CMSPID</TranslatedText>
  </Description>
  <Question>
   <TranslatedText xml:lang="en">[Sponsor-defined question]</TranslatedText>
  </Question>
  <Alias Context="prompt" Name="[Sponsor defined]"/>
  <Alias Context="completionInstructions"
   Name="If collected on the CRF, sponsor may insert instructions to ensure each record has a unique identifier."/>
  <Alias Context="implementationNotes"
   Name="Because SPID is a sponsor-defined identifier, conformance to Question Text or Item Prompt is not applicable. Typically used as an identifier in a data query to communicate clearly to the site the specific record in question or to reconcile concomitant medication/treatment records with AEs and/or MH. May be used to record preprinted number (e.g. line number, record number) on the CRF. This field may be populated by the sponsor&apos;s data collection system."/>
  <Alias Context="mappingInstructions"
   Name="Maps directly to the SDTMIG variable listed in the column with the heading &quot;SDTMIG Target&quot;. May be used to create RELREC to link this record with a record in another domain."
  />
 </ItemDef>
 <ItemDef OID="IT.CMTRT" Name="CMTRT" DataType="text">
  <Description>
   <TranslatedText xml:lang="en">CMTRT</TranslatedText>
  </Description>
  <Question>
   <TranslatedText xml:lang="en">What was the (concomitant) [medication/treatment/therapy]
    (name/term)?</TranslatedText>
  </Question>
  <Alias Context="prompt" Name="(Concomitant) [Medication/Treatment/Therapy]"/>
  <Alias Context="completionInstructions"
   Name="Record only 1 [medication/treatment/therapy] per line. Provide the full trade or proprietary name of the [medication/treatment/therapy]; otherwise the generic name may be recorded."/>
  <Alias Context="implementationNotes"
   Name="In most cases, the verbatim drug names or treatment will be coded to a standard dictionary such as WHODrug after the data have been collected on the CRF. For the collection of verbatim drug name or treatments, the recommendation is to ask sites to provide the full trade or proprietary name since it is more exact than the generic. The full trade name provides the base generic and the appropriate salt for that particular drug. In addition, for coding purposes it helps with ATC selection. For example, Tylenol with codeine #1 has a different ATC code than Tylenol with codeine #3. This field can be used for either prior or concomitant medication/treatments."/>
  <Alias Context="mappingInstructions"
   Name="Maps directly to the SDTMIG variable listed in the column with the heading &quot;SDTMIG Target&quot;."
  />
 </ItemDef>
 <ItemDef OID="IT.CMPRESP" Name="CMPRESP" DataType="text">
  <Description>
   <TranslatedText xml:lang="en">CMPRESP</TranslatedText>
  </Description>
  <Question>
   <TranslatedText xml:lang="en"/>
  </Question>
  <CodeListRef CodeListOID="CL.C66742.NY"/>
  <Alias Context="implementationNotes"
   Name="For prespecified interventions, a hidden field on a CRF defaulted to &quot;Y&quot;, or added during the SDTM dataset creation. If a study collects both prespecified interventions as well as free-text interventions, the value of CMPRESP should be &quot;Y&quot; for all prespecified interventions and null for interventions reported as free text."/>
  <Alias Context="mappingInstructions"
   Name="Maps directly to the SDTMIG variable listed in the column with the heading &quot;SDTMIG Target&quot;."
  />
 </ItemDef>
 <ItemDef OID="IT.CMOCCUR" Name="CMOCCUR" DataType="text">
  <Description>
   <TranslatedText xml:lang="en">CMOCCUR</TranslatedText>
  </Description>
  <Question>
   <TranslatedText xml:lang="en">Did the subject take [prespecified (concomitant)
    medication/treatment/therapy/dose]?; Has the subject taken [prespecified (concomitant)
    medication/treatment/therapy/dose]?</TranslatedText>
  </Question>
  <CodeListRef CodeListOID="CL.C66742.NY"/>
  <Alias Context="prompt" Name="[Specific (Concomitant) [Medication/Treatment/Therapy]"/>
  <Alias Context="completionInstructions"
   Name="Indicate if [specific medication/treatment] was taken by checking Yes or No."/>
  <Alias Context="implementationNotes"
   Name="CMOCCUR is used to report the occurrence of a prespecific medication/treatment. CMOCCUR is not used for spontaneously free text reported concomitant medication/treatments. The site should be able to indicate that the response was not asked or answered."/>
  <Alias Context="mappingInstructions"
   Name="Maps directly to the SDTMIG variable listed in the column with the heading &quot;SDTMIG Target&quot;. If the response was not asked or answered, populate the SDTMIG variable CMSTAT with &quot;NOT DONE&quot;."
  />
 </ItemDef>
 <ItemDef OID="IT.CMINGRD" Name="CMINGRD" DataType="text">
  <Description>
   <TranslatedText xml:lang="en">CMINGRD</TranslatedText>
  </Description>
  <Question>
   <TranslatedText xml:lang="en">What were the active ingredients?</TranslatedText>
  </Question>
  <Alias Context="prompt" Name="Active Ingredients"/>
  <Alias Context="completionInstructions"
   Name="Prior to a subject&apos;s clinical visit, remind all subjects to bring all medications bottles, packs etc. they are taking with them to their clinical visit. Record all active ingredient(s) off the medication label and separate each ingredient with a comma for the name of drug medication or treatment taken. For example, the medication Dolmen, if manufactured in Spain, the active ingredients should be collected as noted below: Active Ingredient: Acetylsalicylic Acid, Ascorbic acid, codeine phosphate."/>
  <Alias Context="implementationNotes"
   Name="This may be collected in addition to the Medication/Treatment Name. Collecting this provides more detailed information when coding to a medication dictionary like WHODrug Dictionary Enhanced Format C, which now codes to the ingredient level for many trade-named medications. For example, depending on the country where it is manufactured, the active ingredients in the medication Dolmen may be different: In Spain, Acetylsalicylic Acid, Ascorbic acid, codeine phosphate; in Italy and Czech Republic, contains Tenoxicam; in Estonia and Latvia, contains Dexketoprofen trometamol."/>
  <Alias Context="mappingInstructions"
   Name="Does not map to an SDTMIG variable. The SDTM Annotated CRF is annotated to indicate that this field is NOT SUBMITTED."
  />
 </ItemDef>
 <ItemDef OID="IT.CMINDC" Name="CMINDC" DataType="text">
  <Description>
   <TranslatedText xml:lang="en">CMINDC</TranslatedText>
  </Description>
  <Question>
   <TranslatedText xml:lang="en">For what indication was the (concomitant)
    [medication/treatment/therapy] taken?</TranslatedText>
  </Question>
  <Alias Context="prompt" Name="Indication"/>
  <Alias Context="completionInstructions"
   Name="Record the reason the medication was taken based on clinical investigator&apos;s evaluation. If taken to treat a condition, and a diagnosis was made, the indication should be the diagnosis. If taken to treat a condition, and no diagnosis was made, the indication should be the signs and symptoms. If taken as prophylaxis, report as &quot;Prophylaxis for &quot; and include a description of the condition(s)."/>
  <Alias Context="implementationNotes"
   Name="This is not the pharmacological/therapeutic classification of an agent (e.g., antibiotic, analgesic), but the reason for its administration to the subject. This additional information is collected on the CRF when sponsors want to capture the reason(s) why a subject took a medication/treatment. This information could be used as deemed appropriate for coding, analysis (e.g., in the classification of medications), for reconciling the medications/treatments taken by a subject with provided medical history, and/or AEs/SAEs as part of the data clean-up and monitoring process."/>
  <Alias Context="mappingInstructions"
   Name="Maps directly to the SDTMIG variable listed in the column with the heading &quot;SDTMIG Target&quot;."
  />
 </ItemDef>
 <ItemDef OID="IT.CMAENO" Name="CMAENO" DataType="text">
  <Description>
   <TranslatedText xml:lang="en">CMAENO</TranslatedText>
  </Description>
  <Question>
   <TranslatedText xml:lang="en">What was the identifier for the adverse event(s) for which the
    (concomitant) [medication/treatment/therapy] was taken?</TranslatedText>
  </Question>
  <Alias Context="prompt" Name="Adverse Event Identifier"/>
  <Alias Context="completionInstructions"
   Name="Record the identifier of the Adverse Event for which this (concomitant) [medication/treatment/therapy] was taken."/>
  <Alias Context="implementationNotes"
   Name="Intent is to establish a link between the medication/treatment and the AE that was reported. CMAENO can be used to identify a relationship between records in CM dataset and records in the AE dataset. See SDTMIG v3.2 Section 8.2 for information on RELREC."/>
  <Alias Context="mappingInstructions"
   Name="This does not map directly to an SDTMIG variable. For the SDTM submission datasets, may be used to create RELREC to link this record with a record in the Adverse Events domain."
  />
 </ItemDef>
 <ItemDef OID="IT.CMMHNO" Name="CMMHNO" DataType="text">
  <Description>
   <TranslatedText xml:lang="en">CMMHNO</TranslatedText>
  </Description>
  <Question>
   <TranslatedText xml:lang="en">What was the identifier for the medical history event(s) for which
    the (concomitant) [medication/treatment/therapy] was taken?</TranslatedText>
  </Question>
  <Alias Context="prompt" Name="Medical History Event Identifier"/>
  <Alias Context="completionInstructions"
   Name="Record the identifier of the medical history event for which this (concomitant) [medication/treatment/therapy] was taken."/>
  <Alias Context="implementationNotes"
   Name="Intent is to establish a link between the medical history condition and the medication/treatment taken for the medical history condition. CMMHNO can be used to identify a relationship between records in the CM dataset and records in the MH dataset. See SDTMIG v3.2 Section 8.2 for information on RELREC."/>
  <Alias Context="mappingInstructions"
   Name="This does not map directly to an SDTMIG variable. For the SDTM submission datasets, may be used to create RELREC to link this record with a record in the Medical History domain."
  />
 </ItemDef>
 <ItemDef OID="IT.CMDOSE" Name="CMDOSE" DataType="Num">
  <Description>
   <TranslatedText xml:lang="en">CMDOSE</TranslatedText>
  </Description>
  <Question>
   <TranslatedText xml:lang="en">What was the individual dose (of the concomitant
    [medication/treatment/therapy] per administration)?</TranslatedText>
  </Question>
  <Alias Context="prompt" Name="[Dose/Amount] (per administration)"/>
  <Alias Context="completionInstructions"
   Name="Record the dose of (concomitant) [medication/treatment] taken per administration (e.g., 200)."/>
  <Alias Context="implementationNotes"
   Name="Used when the dose/amount taken/administered/consumed has only numeric entries. If non-numeric entries are possible, use the CDASH field CMDSTXT."/>
  <Alias Context="mappingInstructions"
   Name="Maps directly to the SDTMIG variable listed in the column with the heading &quot;SDTMIG Target&quot;."
  />
 </ItemDef>
 <ItemDef OID="IT.CMDSTXT" Name="CMDSTXT" DataType="text">
  <Description>
   <TranslatedText xml:lang="en">CMDSTXT</TranslatedText>
  </Description>
  <Question>
   <TranslatedText xml:lang="en">What was the individual dose of the (concomitant)
    [medication/treatment/therapy]?</TranslatedText>
  </Question>
  <Alias Context="prompt" Name="Dose"/>
  <Alias Context="completionInstructions"
   Name="Record the dose of (concomitant) [medication/treatment] taken per administration (e.g., 200)."/>
  <Alias Context="implementationNotes"
   Name="Defining this data collection field as a dose text field allows for flexibility in capturing dose entries as numbers, text or ranges. The data collected in this dose text-format field should be separated or mapped to either SDTMIG CMDOSE if numeric or CMDOSTXT if text."/>
  <Alias Context="mappingInstructions"
   Name="This does not map directly to an SDTMIG variable. Numeric values map to CMDOSE in SDTM. Non-numeric values (e.g., 200-400) map to CMDOSTXT in SDTM."
  />
 </ItemDef>
 <ItemDef OID="IT.CMDOSTOT" Name="CMDOSTOT" DataType="Num">
  <Description>
   <TranslatedText xml:lang="en">CMDOSTOT</TranslatedText>
  </Description>
  <Question>
   <TranslatedText xml:lang="en">What was the total daily dose of the (concomitant)
    [medication/treatment/therapy]?</TranslatedText>
  </Question>
  <Alias Context="prompt" Name="Total Daily Dose"/>
  <Alias Context="completionInstructions"
   Name="Record the total dose of (concomitant) [medication/treatment/therapy] taken daily."/>
  <Alias Context="implementationNotes"
   Name="For use when only total daily dose is collected in the CRF. For general medications/treatments, it is not recommended to use Total Daily Dose. Instead, this can be calculated from other fields such as Units, Dose, and Frequency."/>
  <Alias Context="mappingInstructions"
   Name="Maps directly to the SDTMIG variable listed in the column with the heading &quot;SDTMIG Target&quot;."
  />
 </ItemDef>
 <ItemDef OID="IT.CMDOSU" Name="CMDOSU" DataType="text">
  <Description>
   <TranslatedText xml:lang="en">CMDOSU</TranslatedText>
  </Description>
  <Question>
   <TranslatedText xml:lang="en">What is the unit (for the dose of concomitant
    [medication/treatment/therapy])?</TranslatedText>
  </Question>
  <CodeListRef CodeListOID="CL.C71620.UNIT"/>
  <Alias Context="prompt" Name="(Dose) Unit"/>
  <Alias Context="completionInstructions"
   Name="Record the dose unit of the dose of concomitant [medication/treatment/therapy] taken (e.g., mg.)."/>
  <Alias Context="implementationNotes"
   Name="When sponsors collect data for amount of dose taken (i.e., Dose, Total Daily Dose), Unit must be collected as well (if applicable)."/>
  <Alias Context="mappingInstructions"
   Name="Maps directly to the SDTMIG variable listed in the column with the heading &quot;SDTMIG Target&quot;."
  />
 </ItemDef>
 <ItemDef OID="IT.CMDOSFRM" Name="CMDOSFRM" DataType="text">
  <Description>
   <TranslatedText xml:lang="en">CMDOSFRM</TranslatedText>
  </Description>
  <Question>
   <TranslatedText xml:lang="en">What was the dose form of the (concomitant)
    [medication/treatment/therapy]?</TranslatedText>
  </Question>
  <CodeListRef CodeListOID="CL.C66726.FRM"/>
  <Alias Context="prompt" Name="Dose Form"/>
  <Alias Context="completionInstructions"
   Name="Record the pharmaceutical dosage form (e.g., TABLET CAPSULE, SYRUP) of delivery for the concomitant [medication/treatment/therapy] taken."/>
  <Alias Context="implementationNotes"
   Name="Some drugs have multiple forms and this field may be needed to code the drug to an ATC level. However, in general, this level of detail should not be necessary except for medications/treatments of interest."/>
  <Alias Context="mappingInstructions"
   Name="Maps directly to the SDTMIG variable listed in the column with the heading &quot;SDTMIG Target&quot;."
  />
 </ItemDef>
 <ItemDef OID="IT.CMDOSFRQ" Name="CMDOSFRQ" DataType="text">
  <Description>
   <TranslatedText xml:lang="en">CMDOSFRQ</TranslatedText>
  </Description>
  <Question>
   <TranslatedText xml:lang="en">What was the frequency of the (concomitant)
    [medication/treatment/therapy]?</TranslatedText>
  </Question>
  <CodeListRef CodeListOID="CL.C71113.FREQ"/>
  <Alias Context="prompt" Name="Frequency"/>
  <Alias Context="completionInstructions"
   Name="Record how often the (concomitant) [medication/treatment/therapy] was taken (e.g., BID, PRN)."/>
  <Alias Context="implementationNotes"
   Name="The frequency of the concomitant medication/treatment. When collected, the recommendation is to collect dosing information in separate fields (e.g., CMDOSE, CMDOSEU, CMDOSFRQ) for specific and consistent data collection and to enable programmatically utilizing these data."/>
  <Alias Context="mappingInstructions"
   Name="Maps directly to the SDTMIG variable listed in the column with the heading &quot;SDTMIG Target&quot;."
  />
 </ItemDef>
 <ItemDef OID="IT.CMROUTE" Name="CMROUTE" DataType="text">
  <Description>
   <TranslatedText xml:lang="en">CMROUTE</TranslatedText>
  </Description>
  <Question>
   <TranslatedText xml:lang="en">What was the route of administration of the (concomitant)
    [medication/treatment/therapy]?</TranslatedText>
  </Question>
  <CodeListRef CodeListOID="CL.C66729.ROUTE"/>
  <Alias Context="prompt" Name="Route"/>
  <Alias Context="completionInstructions"
   Name="Provide the route of administration for the (concomitant) [medication/treatment/therapy]."/>
  <Alias Context="implementationNotes"
   Name="This additional information may be important to collect on the CRF when the sponsor would want to capture a medication&apos;s/treatment&apos;s route of administration for purposes such as coding and the medication/treatment may have more than one route. Some companies may use route in coding medications/treatments to be able to choose a precise preferred name and ATC code."/>
  <Alias Context="mappingInstructions"
   Name="Maps directly to the SDTMIG variable listed in the column with the heading &quot;SDTMIG Target&quot;."
  />
 </ItemDef>
 <ItemDef OID="IT.CMSTDAT" Name="CMSTDAT" DataType="date">
  <Description>
   <TranslatedText xml:lang="en">CMSTDAT</TranslatedText>
  </Description>
  <Question>
   <TranslatedText xml:lang="en">What was the (concomitant) [medication/treatment/therapy/dose]
    start date?</TranslatedText>
  </Question>
  <Alias Context="prompt" Name="Start Date"/>
  <Alias Context="completionInstructions"
   Name="Record the date the concomitant [medication/treatment] was first taken using this format (DD-MON-YYYY). If the subject has been taking the concomitant [medication/treatment] for a considerable amount of time prior to the start of the study, it is acceptable to have an incomplete date. Concomitant [medication/treatment] taken during the study are expected to have a complete start date. Prior concomitant [medication/treatment] that are exclusionary should have both a start and end date."/>
  <Alias Context="implementationNotes"
   Name="The assumption is that sponsors should either have a Start Date or will indicate that the medication or therapy was started before, during or after the study period. The preferred method is to collect a complete Start Date. Partial dates (e.g., providing year only) for medications/treatment started a considerable amount of time prior to the start of study are acceptable."/>
  <Alias Context="mappingInstructions"
   Name="This does not map directly to an SDTMIG variable. For the SDTM submission dataset, concatenate all collected CDASH START DATE and TIME components and populate the SDTMIG variable CMSTDTC in ISO 8601 format."
  />
 </ItemDef>
 <ItemDef OID="IT.CMSTTIM" Name="CMSTTIM" DataType="time">
  <Description>
   <TranslatedText xml:lang="en">CMSTTIM</TranslatedText>
  </Description>
  <Question>
   <TranslatedText xml:lang="en">What was the (concomitant) [medication/treatment/therapy/dose]
    start time?</TranslatedText>
  </Question>
  <Alias Context="prompt" Name="Start Time"/>
  <Alias Context="completionInstructions"
   Name="Record the time (as complete as possible) that the concomitant [medication/treatment] was started."/>
  <Alias Context="implementationNotes"
   Name="Recommend collecting the time a concomitant medication/treatment was started only when a protocol or data collection scenarios supports it. Typically, a start time is not collected unless the subject is under the direct care of the site at the time a concomitant medication/treatment administered or the subject records the start time in a diary. See Section 3.7, Mapping Relative Times from Collection to Submissions, and SDTMIG v3.2 Section 4.1.4.7 for more information."/>
  <Alias Context="mappingInstructions"
   Name="This does not map directly to an SDTMIG variable. For the SDTM submission dataset, concatenate all collected CDASH START DATE and TIME components and populate the SDTMIG variable CMSTDTC in ISO 8601 format."
  />
 </ItemDef>
 <ItemDef OID="IT.CMPRIOR" Name="CMPRIOR" DataType="text">
  <Description>
   <TranslatedText xml:lang="en">CMPRIOR</TranslatedText>
  </Description>
  <Question>
   <TranslatedText xml:lang="en">Was the (concomitant) [medication/treatment/therapy] given/taken
    prior to [CMSTTPT]?; Was the (concomitant) [medication/treatment/therapy] given/taken prior to
    study start?</TranslatedText>
  </Question>
  <CodeListRef CodeListOID="CL.C66742.NY"/>
  <Alias Context="prompt" Name="Prior to [CMSTTPT]; Prior to Study"/>
  <Alias Context="completionInstructions"
   Name="Check if the concomitant [medication/treatment/therapy] was started before the study."/>
  <Alias Context="implementationNotes"
   Name="Sponsors may collect this information rather than start dates. See Section 3.7, Mapping Relative Times from Collection to Submissions, and SDTMIG v3.2 Section 4.1.4.7 for more information."/>
  <Alias Context="mappingInstructions"
   Name="This does not map directly to an SDTMIG variable. May be used to populate a value into an SDTM relative timing variable such as CMSTRF or CMSTRTPT. When populating CMSTRF, or CMSTRTPT, if the value of the CDASH field CMPRIOR is &quot;Y&quot; a value from the CDISC CT (STENRF) may be used. When CMPRIOR refers to the Study Reference Period (defined in DM.RFSTDTC to DM.RFENDTC) the SDTM variable CMSTRF should be populated. When CMPRIOR is compared to another time point, the SDTM variables CMSTRTPT and CMSTTPT should be used. When CMONGO is used in conjunction with another time point, the SDTM variables CMENRTPT and CMENTPT should be used. 
 Note: CMSTRTPT must refer to the time point anchor described in CMSTTPT."
  />
 </ItemDef>
 <ItemDef OID="IT.CMONGO" Name="CMONGO" DataType="text">
  <Description>
   <TranslatedText xml:lang="en">CMONGO</TranslatedText>
  </Description>
  <Question>
   <TranslatedText xml:lang="en">Was the (concomitant) [medication/treatment/therapy] ongoing (as of
    [the study-specific time point or period])?</TranslatedText>
  </Question>
  <CodeListRef CodeListOID="CL.C66742.NY"/>
  <Alias Context="prompt" Name="Ongoing (as of [the study-specific time point or period])"/>
  <Alias Context="completionInstructions"
   Name="Record the concomitant [medication/treatment/therapy] as ongoing if the subject has not stopped taking the concomitant [medication/treatment/therapy] at [the timepoint defined by the study]. If the concomitant medication is ongoing, the end date should be left blank"/>
  <Alias Context="implementationNotes"
   Name="This box should be checked to indicate that the concomitant medication/treatment has not stopped at the time of data collection. It is expected that every recorded medication/treatment should have either an End Date or be checked as Ongoing, but not both. However, in cases where ongoing concomitant medications/treatments are not permitted, it may not be necessary to include an Ongoing field in the CRF. See Section 3.7, Mapping Relative Times from Collection to Submission, for more information about collecting relative date/time; see SDTMIG v3.2 Section 4.1.4 for information about mapping relative times."/>
  <Alias Context="mappingInstructions"
   Name="This does not map directly to an SDTM variable. May be used to populate a value into an SDTMIG relative timing variable such as CMENRF or CMENRTPT. When populating CMENRF, if the value of CMONGO is &quot;Y&quot;, the value of &quot;DURING&quot;, &quot;AFTER&quot; or &quot;DURING/AFTER&quot; may be used. When populating CMENRTPT, if the value of CMONGO is &quot;Y&quot;, the value of &quot;ONGOING&quot; may be used. When CMONGO refers to the Study Reference Period (defined in DM.RFSTDTC to DM.RFENDTC) the SDTM variable CMENRF should be populated. When CMONGO is used in conjunction with another time point, the SDTM variables CMENRTPT and CMENTPT should be used. 
 Note: CMENRTPT must refer to a time point anchor described in CMENTPT."
  />
 </ItemDef>
 <ItemDef OID="IT.CMENDAT" Name="CMENDAT" DataType="date">
  <Description>
   <TranslatedText xml:lang="en">CMENDAT</TranslatedText>
  </Description>
  <Question>
   <TranslatedText xml:lang="en">What was the (concomitant) [medication/treatment/therapy/dose] end
    date?</TranslatedText>
  </Question>
  <Alias Context="prompt" Name="End Date"/>
  <Alias Context="completionInstructions"
   Name="Record the date the concomitant [medication/treatment] was stopped using this format (DD-MON-YYYY). If the subject has not stopped taking the concomitant [medication/treatment] leave this field blank."/>
  <Alias Context="implementationNotes"
   Name="The assumption is that sponsors should either have an End Date or will indicate that the medication or therapy was ongoing at the time of collection or at the end of the study. However, in cases where the End Date can be determined from dates collected elsewhere in the CRF it is not necessary to include an End Date in the CRF. For example, if all concomitant medications/treatments are administered only once during a trial, the End Date will be the same as the Start Date."/>
  <Alias Context="mappingInstructions"
   Name="This does not map directly to an SDTMIG variable. For the SDTM submission dataset, concatenate all collected CDASH END DATE and TIME components and populate the SDTMIG variable CMENDTC in ISO 8601 format."
  />
 </ItemDef>
 <ItemDef OID="IT.CMENTIM" Name="CMENTIM" DataType="time">
  <Description>
   <TranslatedText xml:lang="en">CMENTIM</TranslatedText>
  </Description>
  <Question>
   <TranslatedText xml:lang="en">What was the [medication/treatment/therapy/dose] end
    time?</TranslatedText>
  </Question>
  <Alias Context="prompt" Name="End Time"/>
  <Alias Context="completionInstructions"
   Name="Record the time (as complete as possible) that the concomitant medication/treatment was stopped."/>
  <Alias Context="implementationNotes"
   Name="Recommend collecting the time a concomitant medication or treatment was ended only when a protocol or data collection scenarios require it or the subject records the start time in a diary. Typically, an end time is not collected unless the subject is under the direct care of the site at the time a concomitant medication/treatment is stopped."/>
  <Alias Context="mappingInstructions"
   Name="This does not map directly to an SDTMIG variable. For the SDTM submission dataset, concatenate all collected CDASH END DATE and TIME components and populate the SDTMIG variable CMENDTC in ISO 8601 format."
  />
 </ItemDef>
 <ItemDef OID="IT.CMDECOD" Name="CMDECOD" DataType="text">
  <Description>
   <TranslatedText xml:lang="en">CMDECOD</TranslatedText>
  </Description>
  <Question>
   <TranslatedText xml:lang="en"/>
  </Question>
  <Alias Context="implementationNotes"
   Name="This field does not typically appear on the CRF. Sponsors will populate this through the coding process. Equivalent to the generic drug name in WHODrug, or a term in SNOMED, ICD9, or other published or sponsor-defined dictionaries."/>
  <Alias Context="mappingInstructions"
   Name="Maps directly to the SDTMIG variable listed in the column with the heading &quot;SDTMIG Target&quot;."
  />
 </ItemDef>
 <ItemDef OID="IT.CMCLAS" Name="CMCLAS" DataType="text">
  <Description>
   <TranslatedText xml:lang="en">CMCLAS</TranslatedText>
  </Description>
  <Question>
   <TranslatedText xml:lang="en"/>
  </Question>
  <Alias Context="implementationNotes"
   Name="This field does not typically appear on the CRF. Sponsors will populate this through the coding process. This would generally be the class used for analysis."/>
  <Alias Context="mappingInstructions"
   Name="Maps directly to the SDTMIG variable listed in the column with the heading &quot;SDTMIG Target&quot;."
  />
 </ItemDef>
 <ItemDef OID="IT.CMCLASCD" Name="CMCLASCD" DataType="Num">
  <Description>
   <TranslatedText xml:lang="en">CMCLASCD</TranslatedText>
  </Description>
  <Question>
   <TranslatedText xml:lang="en"/>
  </Question>
  <Alias Context="implementationNotes"
   Name="This field does not typically appear on the CRF. Sponsors will populate this through the coding process. This would generally be the class code used for analysis."/>
  <Alias Context="mappingInstructions"
   Name="Maps directly to the SDTMIG variable listed in the column with the heading &quot;SDTMIG Target&quot;."
  />
 </ItemDef>
 <ItemDef OID="IT.CMATC1" Name="CMATC1" DataType="text">
  <Description>
   <TranslatedText xml:lang="en">CMATC1</TranslatedText>
  </Description>
  <Question>
   <TranslatedText xml:lang="en"/>
  </Question>
  <Alias Context="implementationNotes"
   Name="This field does not typically appear on the CRF. This is populated through the sponsor&apos;s coding process."/>
  <Alias Context="mappingInstructions"
   Name="This does not map directly to an SDTMIG variable. This information could be submitted in a SUPPCM dataset as the value of SUPPCM.QVAL where SUPPCM.QNAM=&quot;CMATC1&quot; and SUPPCM.QLABEL=&quot;ATC Level 1 Description&quot;. Sponsors should include an Origin column in the SUPPQ dataset to indicate that the data was &quot;ASSIGNED&quot;. Refer to the current SDTM and SDTMIG for instructions on placement of non-standard variables in SDTM domains."
  />
 </ItemDef>
 <ItemDef OID="IT.CMATC1CD" Name="CMATC1CD" DataType="Num">
  <Description>
   <TranslatedText xml:lang="en">CMATC1CD</TranslatedText>
  </Description>
  <Question>
   <TranslatedText xml:lang="en"/>
  </Question>
  <Alias Context="implementationNotes"
   Name="This field does not typically appear on the CRF. This is populated through the sponsor&apos;s coding process."/>
  <Alias Context="mappingInstructions"
   Name="This does not map directly to an SDTMIG variable. This information could be submitted in a SUPPCM dataset as the value of SUPPCM.QVAL where SUPPCM.QNAM =&quot;MATC1CD&quot; and SUPPCM.QLABEL=&quot;ATC Level 1 Code&quot;. Sponsors should include an Origin column in the SUPPQ dataset to indicate that the data was &quot;ASSIGNED&quot;."
  />
 </ItemDef>
 <ItemDef OID="IT.CMATC2" Name="CMATC2" DataType="text">
  <Description>
   <TranslatedText xml:lang="en">CMATC2</TranslatedText>
  </Description>
  <Question>
   <TranslatedText xml:lang="en"/>
  </Question>
  <Alias Context="implementationNotes"
   Name="This field does not typically appear on the CRF. This is populated through the sponsor&apos;s coding process."/>
  <Alias Context="mappingInstructions"
   Name="This does not map directly to an SDTMIG variable. This information could be submitted in a SUPPCM dataset as the value of SUPPCM.QVAL where SUPPCM.QNAM=&quot;CMATC2&quot; and SUPPCM.QLABEL=&quot;ATC Level 2 Description&quot;. Sponsors should include an Origin column in the SUPPQ dataset to indicate that the data was &quot;ASSIGNED&quot;. Refer to the current SDTM and SDTMIG for instructions on placement of non-standard variables in SDTM domains."
  />
 </ItemDef>
 <ItemDef OID="IT.CMATC2CD" Name="CMATC2CD" DataType="Num">
  <Description>
   <TranslatedText xml:lang="en">CMATC2CD</TranslatedText>
  </Description>
  <Question>
   <TranslatedText xml:lang="en"/>
  </Question>
  <Alias Context="implementationNotes"
   Name="This field does not typically appear on the CRF. This is populated through the sponsor&apos;s coding process."/>
  <Alias Context="mappingInstructions"
   Name="This does not map directly to an SDTMIG variable. This information could be submitted in a SUPPCM dataset as the value of SUPPCM.QVAL where SUPPCM.QNAM=&quot;CMATC2CD&quot; and SUPPCM.QLABEL=&quot;ATC Level 2 Code&quot;. Sponsors should include an Origin column in the SUPPQ dataset to indicate that the data was &quot;ASSIGNED&quot;."
  />
 </ItemDef>
 <ItemDef OID="IT.CMATC3" Name="CMATC3" DataType="text">
  <Description>
   <TranslatedText xml:lang="en">CMATC3</TranslatedText>
  </Description>
  <Question>
   <TranslatedText xml:lang="en"/>
  </Question>
  <Alias Context="implementationNotes"
   Name="This field does not typically appear on the CRF. This is populated through the sponsor&apos;s coding process."/>
  <Alias Context="mappingInstructions"
   Name="This does not map directly to an SDTMIG variable. This information could be submitted in a SUPPCM dataset as the value of SUPPCM.QVAL where SUPPCM.QNAM=&quot;CMATC3&quot; and SUPPCM.QLABEL=&quot;ATC Level 3 Description&quot;. Sponsors should include an Origin column in the SUPPQ dataset to indicate that the data was &quot;ASSIGNED&quot;. Refer to the current SDTM and SDTMIG for instructions on placement of non-standard variables in SDTM domains."
  />
 </ItemDef>
 <ItemDef OID="IT.CMATC3CD" Name="CMATC3CD" DataType="Num">
  <Description>
   <TranslatedText xml:lang="en">CMATC3CD</TranslatedText>
  </Description>
  <Question>
   <TranslatedText xml:lang="en"/>
  </Question>
  <Alias Context="implementationNotes"
   Name="This field does not typically appear on the CRF. This is populated through the sponsor&apos;s coding process."/>
  <Alias Context="mappingInstructions"
   Name="This does not map directly to an SDTMIG variable. This information could be submitted in a SUPPCM dataset as the value of SUPPCM.QVAL where SUPPCM.QNAM=&quot;CMATC3CD&quot; and SUPPCM.QLABEL=&quot;ATC Level 3 Code&quot;. Sponsors should include an Origin column in the SUPPQ dataset to indicate that the data was &quot;ASSIGNED&quot;."
  />
 </ItemDef>
 <ItemDef OID="IT.CMATC4" Name="CMATC4" DataType="text">
  <Description>
   <TranslatedText xml:lang="en">CMATC4</TranslatedText>
  </Description>
  <Question>
   <TranslatedText xml:lang="en"/>
  </Question>
  <Alias Context="implementationNotes"
   Name="This field does not typically appear on the CRF. This is populated through the sponsor&apos;s coding process."/>
  <Alias Context="mappingInstructions"
   Name="This does not map directly to an SDTMIG variable. This information could be submitted in a SUPPCM dataset as the value of SUPPCM.QVAL where SUPPCM.QNAM=&quot;CMATC4&quot; and SUPPCM.QLABEL=&quot;ATC Level 4 Description&quot;. Sponsors should include an Origin column in the SUPPQ dataset to indicate that the data was &quot;ASSIGNED&quot;. Refer to the current SDTM and SDTMIG for instructions on placement of non-standard variables in SDTM domains."
  />
 </ItemDef>
 <ItemDef OID="IT.CMATC4CD" Name="CMATC4CD" DataType="Num">
  <Description>
   <TranslatedText xml:lang="en">CMATC4CD</TranslatedText>
  </Description>
  <Question>
   <TranslatedText xml:lang="en"/>
  </Question>
  <Alias Context="implementationNotes"
   Name="This field does not typically appear on the CRF. This is populated through the sponsor&apos;s coding process."/>
  <Alias Context="mappingInstructions"
   Name="This does not map directly to an SDTMIG variable. This information could be submitted in a SUPPCM dataset as the value of SUPPCM.QVAL where SUPPCM.QNAM=&quot;CMATC4CD&quot; and SUPPCM.QLABEL=&quot;ATC Level 4 Code&quot;. Sponsors should include an Origin column in the SUPPQ dataset to indicate that the data was &quot;ASSIGNED&quot;."
  />
 </ItemDef>
 <ItemDef OID="IT.CMATC5" Name="CMATC5" DataType="text">
  <Description>
   <TranslatedText xml:lang="en">CMATC5</TranslatedText>
  </Description>
  <Question>
   <TranslatedText xml:lang="en"/>
  </Question>
  <Alias Context="implementationNotes"
   Name="This field does not typically appear on the CRF. This is populated through the sponsor&apos;s coding process."/>
  <Alias Context="mappingInstructions"
   Name="This does not map directly to an SDTMIG variable. This information could be submitted in a SUPPCM dataset as the value of SUPPCM.QVAL where SUPPCM.QNAM=&quot;CMATC5&quot; and SUPPCM.QLABEL=&quot;ATC Level 5 Description&quot;. Sponsors should include an Origin column in the SUPPQ dataset to indicate that the data was &quot;ASSIGNED&quot;. Refer to the current SDTM and SDTMIG for instructions on placement of non-standard variables in SDTM domains."
  />
 </ItemDef>
 <ItemDef OID="IT.CMATC5CD" Name="CMATC5CD" DataType="Num">
  <Description>
   <TranslatedText xml:lang="en">CMATC5CD</TranslatedText>
  </Description>
  <Question>
   <TranslatedText xml:lang="en"/>
  </Question>
  <Alias Context="implementationNotes"
   Name="This field does not typically appear on the CRF. This is populated through the sponsor&apos;s coding process."/>
  <Alias Context="mappingInstructions"
   Name="This does not map directly to an SDTMIG variable. This information could be submitted in a SUPPCM dataset as the value of SUPPCM.QVAL where SUPPCM.QNAM=&quot;CMATC5CD&quot; and SUPPCM.QLABEL=&quot;ATC Level 5 Code&quot;. Sponsors should include an Origin column in the SUPPQ dataset to indicate that the data was &quot;ASSIGNED&quot;."
  />
 </ItemDef>
 <ItemDef OID="IT.EPOCH" Name="EPOCH" DataType="text">
  <Description>
   <TranslatedText xml:lang="en">EPOCH</TranslatedText>
  </Description>
  <Question>
   <TranslatedText xml:lang="en">What is the trial epoch?</TranslatedText>
  </Question>
  <CodeListRef CodeListOID="CL.C99079.EPOCH"/>
  <Alias Context="prompt" Name="[Epoch](Period/Phase/Sponsor-defined phrase)"/>
  <Alias Context="completionInstructions" Name="[protocol specific]"/>
  <Alias Context="implementationNotes"
   Name="If the same information is collected more than once in different periods/parts of a study (e.g., Disposition), EPOCH may be needed to differentiate them. Typically, the trial epoch will be preprinted on the CRF as the title of the page. See SDTMIG for further information regarding EPOCH."/>
  <Alias Context="mappingInstructions"
   Name="Maps directly to the SDTMIG variable listed in the column with the heading SDTMIG Target."
  />
 </ItemDef>
 <ItemDef OID="IT.ECYN" Name="ECYN" DataType="text">
  <Description>
   <TranslatedText xml:lang="en">ECYN</TranslatedText>
  </Description>
  <Question>
   <TranslatedText xml:lang="en">Were any[study treatment/dose] taken?</TranslatedText>
  </Question>
  <CodeListRef CodeListOID="CL.C66742.NY"/>
  <Alias Context="prompt" Name="Any Study Treatments"/>
  <Alias Context="completionInstructions"
   Name="Indicate if the subject took any study medications. If Yes, include the appropriate details where indicated."/>
  <Alias Context="implementationNotes"
   Name="The intent/purpose of collecting this field is to help with data cleaning and monitoring. It provides verification that all other fields on the CRF were deliberately left blank. The ECYN is meant to indicate that the exposure as collected form should be completed or inserted into the case book. ECOCCUR would be used when the actual drug name is preprinted on the CRF. While these might be equivalent in a single drug study, there are differences in how they would be used in most trials. Therefore, it does not map into the SDTM variable ECOCCUR, since ECOCCUR indicates whether the subject was actually administered treatment/medication. If actual treatment data is available (ECYN =&quot;Y&quot;), ECOCCUR may be populated based on whether subject was actually administered treatment/medication."/>
  <Alias Context="mappingInstructions"
   Name="Does not map to an SDTMIG variable. The SDTM aCRF is annotated to indicate that this field is NOT SUBMITTED."
  />
 </ItemDef>
 <ItemDef OID="IT.ECCAT" Name="ECCAT" DataType="text">
  <Description>
   <TranslatedText xml:lang="en">ECCAT</TranslatedText>
  </Description>
  <Question>
   <TranslatedText xml:lang="en">What is the category of the [study
    treatment/dose]?</TranslatedText>
  </Question>
  <Alias Context="prompt" Name="[Study Treatment Category]; NULL"/>
  <Alias Context="completionInstructions"
   Name="Record the study treatment category, if not pre-printed on the CRF."/>
  <Alias Context="implementationNotes"
   Name="Sponsor-defined controlled terminology. This would most commonly be either a heading or a preprinted category value on the CRF, and not a question to which the site would provide an answer. If a question is asked, the response would typically be a sponsor-defined codelist. If the form is laid out as a grid, then words such as &quot;Category&quot; can be included as the column header."/>
  <Alias Context="mappingInstructions"
   Name="Maps directly to the SDTMIG variable listed in the column with the heading SDTMIG Target."
  />
 </ItemDef>
 <ItemDef OID="IT.ECSCAT" Name="ECSCAT" DataType="text">
  <Description>
   <TranslatedText xml:lang="en">ECSCAT</TranslatedText>
  </Description>
  <Question>
   <TranslatedText xml:lang="en">What is the subcategory of the [study
    treatment/dose]?</TranslatedText>
  </Question>
  <Alias Context="prompt" Name="[Study Treatment Subcategory]; NULL"/>
  <Alias Context="completionInstructions"
   Name="Record the study treatment subcategory, if not pre-printed on the CRF."/>
  <Alias Context="implementationNotes"
   Name="Sponsor-defined controlled terminology. This would most commonly be preprinted on the CRF or screen and prepopulated in the data management system. This is not typically a question to which the site would provide an answer. ECSCAT can only be used if there is an ECCAT and it must be a subcategorization of ECCAT."/>
  <Alias Context="mappingInstructions"
   Name="Maps directly to the SDTMIG variable listed in the column with the heading SDTMIG Target."
  />
 </ItemDef>
 <ItemDef OID="IT.ECTRT" Name="ECTRT" DataType="text">
  <Description>
   <TranslatedText xml:lang="en">ECTRT</TranslatedText>
  </Description>
  <Question>
   <TranslatedText xml:lang="en">What was the [study treatment/investigational product]
    name?</TranslatedText>
  </Question>
  <Alias Context="prompt" Name="[Study Treatment/Investigational Product Name]"/>
  <Alias Context="completionInstructions" Name="Record the name of study treatment."/>
  <Alias Context="implementationNotes"
   Name="ECTRT is the name of the intervention or treatment known to the subject and/or administrator and it is the SDTM topic variable. It is a required variable in SDTM and must have a value in CDASH or a plan to populate it in the SDTM submission datasets (i.e., collected or populated from other sources). In a masked study, if treatment is collected and known as Tablet A to the subject or administrator, then ECTRT=&quot;TABLET A&quot;. If in a masked study the treatment is not known by a synonym and the data are to be exchanged between sponsors, partners and/or regulatory agency(s), then assign ECTRT the value of &quot;MASKED&quot;."/>
  <Alias Context="mappingInstructions"
   Name="Maps directly to the SDTMIG variable listed in the column with the heading SDTMIG Target."
  />
 </ItemDef>
 <ItemDef OID="IT.ECPRESP" Name="ECPRESP" DataType="text">
  <Description>
   <TranslatedText xml:lang="en">ECPRESP</TranslatedText>
  </Description>
  <Question>
   <TranslatedText xml:lang="en"/>
  </Question>
  <CodeListRef CodeListOID="CL.C66742.NY"/>
  <Alias Context="implementationNotes"
   Name="For prespecified interventions, a hidden field on a CRF defaulted to &quot;Y&quot;, or added during the SDTM dataset creation. If a study collects both prespecified interventions as well as free-text interventions, the value of ECPRESP should be &quot;Y&quot; for all prespecified interventions and null for interventions reported as free-text."/>
  <Alias Context="mappingInstructions"
   Name="Maps directly to the SDTMIG variable listed in the column with the heading SDTMIG Target."
  />
 </ItemDef>
 <ItemDef OID="IT.ECOCCUR" Name="ECOCCUR" DataType="text">
  <Description>
   <TranslatedText xml:lang="en">ECOCCUR</TranslatedText>
  </Description>
  <Question>
   <TranslatedText xml:lang="en">Was [study treatment/dose] administered?; Has the subject taken
    [study treatment/dose]?</TranslatedText>
  </Question>
  <CodeListRef CodeListOID="CL.C66742.NY"/>
  <Alias Context="prompt" Name="[Study Medication/Treatment]"/>
  <Alias Context="completionInstructions"
   Name="Indicate if the subject took study treatment. If Yes, include the appropriate details where indicated."/>
  <Alias Context="implementationNotes"
   Name="ECOCCUR is used to indicate whether the subject was actually administered treatment/medication. ECOCCUR should not be used to indicate that the question was not asked or answered."/>
  <Alias Context="mappingInstructions"
   Name="Maps directly to the SDTMIG variable listed in the column with the heading SDTMIG Target. Not applicable when ECMOOD is &quot;Scheduled&quot;."
  />
 </ItemDef>
 <ItemDef OID="IT.ECREASOC" Name="ECREASOC" DataType="text">
  <Description>
   <TranslatedText xml:lang="en">ECREASOC</TranslatedText>
  </Description>
  <Question>
   <TranslatedText xml:lang="en">What was the reason that the[study treatment/dose] was
    (not)taken?</TranslatedText>
  </Question>
  <Alias Context="prompt" Name="Reason (Not) Taken"/>
  <Alias Context="completionInstructions"
   Name="Indicate why the study treatment was or wasnot taken."/>
  <Alias Context="implementationNotes"
   Name="The reason the study treatment was or was not taken may be chosen from a sponsor-defined codelist (e.g., SUBJECT MISTAKE, SUBJECT REFUSED) or entered as free text. When --REASOC is used, --OCCUR must also be populated in the SDTM dataset with a value of &quot;Y&quot; or &quot;N&quot;."/>
  <Alias Context="mappingInstructions"
   Name="This information could be submitted in a SUPPEC dataset as the value of SUPPEC.QVAL where SUPPEC.QNAM=&quot;ECREASOC&quot; and SUPPEC.QLABEL =&quot;Reason for Occur Value&quot;. Refer to the current SDTM and SDTMIG for instructions on placement of non-standard variables in SDTM domains."
  />
 </ItemDef>
 <ItemDef OID="IT.ECMOOD" Name="ECMOOD" DataType="text">
  <Description>
   <TranslatedText xml:lang="en">ECMOOD</TranslatedText>
  </Description>
  <Question>
   <TranslatedText xml:lang="en">Does this record describe scheduled [study treatment/dose] or
    performed [study treatment/dose]?</TranslatedText>
  </Question>
  <CodeListRef CodeListOID="CL.C125923.BRDGMOOD"/>
  <Alias Context="prompt" Name="Scheduled/Performed"/>
  <Alias Context="completionInstructions"
   Name="Indicate if this record has happened or is intended to happen."/>
  <Alias Context="implementationNotes"
   Name="&quot;SCHEDULED&quot; is for collected subject-level intended dose records. &quot;PERFORMED&quot; is for collected subject-level actual dose records. &quot;Planned&quot; or &quot;Scheduled&quot; can be pre-printed as the CRF name or section header, as applicable. If collecting both the scheduled and performed dosing in the same horizontal record, the sponsor may choose to append &quot;_SCHEDULED&quot; to the ECDOSE/ECDOSTXT variable name to delineate the scheduled dose from the performed dose. The performed dose would just be collected with ECDOSE/ECDOSTXT and ECDOSU."/>
  <Alias Context="mappingInstructions"
   Name="Maps directly to the SDTMIG variable listed in the column with the heading SDTMIG Target. When implemented ECMOOD must be populated for all records."
  />
 </ItemDef>
 <ItemDef OID="IT.ECREFID" Name="ECREFID" DataType="text">
  <Description>
   <TranslatedText xml:lang="en">ECREFID</TranslatedText>
  </Description>
  <Question>
   <TranslatedText xml:lang="en">What is the[study treatment/dose] label
    identifier?</TranslatedText>
  </Question>
  <Alias Context="prompt" Name="[Study Treatment] Label Identifier"/>
  <Alias Context="completionInstructions" Name="Record treatment label identifier."/>
  <Alias Context="implementationNotes"
   Name="This packaging identifier (e.g., kit number, bottle label, vial identifier) may be collected in different ways (e.g., affixing label onto CRF, scanning a bar code). For some study dosing regimens, greater granularity for treatment identifiers may be needed. In this situation, sponsors may need to use additional variables."/>
  <Alias Context="mappingInstructions"
   Name="Maps directly to the SDTMIG variable listed in the column with the heading SDTMIG Target."
  />
 </ItemDef>
 <ItemDef OID="IT.ECLOT" Name="ECLOT" DataType="text">
  <Description>
   <TranslatedText xml:lang="en">ECLOT</TranslatedText>
  </Description>
  <Question>
   <TranslatedText xml:lang="en">What was the lot number of the[study treatment/dose]
    used?</TranslatedText>
  </Question>
  <Alias Context="prompt" Name="Lot Number"/>
  <Alias Context="completionInstructions"
   Name="Record the lot number that appears on the container holding the study treatment."/>
  <Alias Context="implementationNotes"
   Name="The Lot Number identifies the manufacturing batch of the study treatment. In open-label studies, the reference number on the study treatment container may represent an actual Lot Number and should be submitted using ECLOT. This variable may be populated during the process of creating the SDTM submission datasets. Do not collect other identification variables in this field."/>
  <Alias Context="mappingInstructions"
   Name="Maps directly to the SDTMIG variable listed in the column with the heading SDTMIG Target."
  />
 </ItemDef>
 <ItemDef OID="IT.ECFAST" Name="ECFAST" DataType="text">
  <Description>
   <TranslatedText xml:lang="en">ECFAST</TranslatedText>
  </Description>
  <Question>
   <TranslatedText xml:lang="en">Was the subject fasting?</TranslatedText>
  </Question>
  <CodeListRef CodeListOID="CL.C66742.NY"/>
  <Alias Context="prompt" Name="Fasting"/>
  <Alias Context="completionInstructions"
   Name="Record whether the subject was fasting prior to the study treatment being taken."/>
  <Alias Context="implementationNotes"
   Name="Some study treatments may have a food effect and it is important to know whether the dose was taken while the subject was fasted."/>
  <Alias Context="mappingInstructions"
   Name="Maps directly to the SDTMIG variable listed in the column with the heading SDTMIG Target. Would only be populated when ECMOOD=&quot;PERFORMED&quot;."
  />
 </ItemDef>
 <ItemDef OID="IT.ECDOSFRM" Name="ECDOSFRM" DataType="text">
  <Description>
   <TranslatedText xml:lang="en">ECDOSFRM</TranslatedText>
  </Description>
  <Question>
   <TranslatedText xml:lang="en">What was the dose form of the [study
    treatment/dose]?</TranslatedText>
  </Question>
  <CodeListRef CodeListOID="CL.C66726.FRM"/>
  <Alias Context="prompt" Name="Dose Form"/>
  <Alias Context="completionInstructions"
   Name="Record the dose form (e.g., SOLUTION, TABLET, LOTION) or enter the appropriate code from the code list."/>
  <Alias Context="implementationNotes"
   Name="This must be collected if it cannot be determined from other sources or if there are multiple options for the same study treatment."/>
  <Alias Context="mappingInstructions"
   Name="Maps directly to the SDTMIG variable listed in the column with the heading SDTMIG Target."
  />
 </ItemDef>
 <ItemDef OID="IT.ECSTDAT" Name="ECSTDAT" DataType="date">
  <Description>
   <TranslatedText xml:lang="en">ECSTDAT</TranslatedText>
  </Description>
  <Question>
   <TranslatedText xml:lang="en">What was the ([intended/planned/actual]) ([study treatment/dose])
    (start) date?</TranslatedText>
  </Question>
  <Alias Context="prompt" Name="(Start) Date"/>
  <Alias Context="completionInstructions"
   Name="Record the start date of the study treatment administration using this format (DD-MON-YYYY)."/>
  <Alias Context="implementationNotes"
   Name="Date when constant dosing interval of the study treatment started or single administration occurred. When collecting the date for an individual dose, the word &quot;start&quot; may be omitted from the Question Text and Prompt. When ECMOOD is collected and ECMOOD is &quot;SCHEDULED&quot;, use &quot;intended&quot; in the question text and prompt. When ECMOOD is collected and ECMOOD is &quot;PERFORMED&quot;, use &quot;actual&quot; in the question text and prompt."/>
  <Alias Context="mappingInstructions"
   Name="This does not map directly to an SDTMIG variable. For the SDTM submission dataset, concatenate all collected CDASH START DATE and TIME components and populate the SDTMIG variable ECSTDTC in ISO 8601 format."
  />
 </ItemDef>
 <ItemDef OID="IT.ECSTTIM" Name="ECSTTIM" DataType="time">
  <Description>
   <TranslatedText xml:lang="en">ECSTTIM</TranslatedText>
  </Description>
  <Question>
   <TranslatedText xml:lang="en">What was the ([intended/planned/actual]) ([study treatment/dose])
    (start) time?</TranslatedText>
  </Question>
  <Alias Context="prompt" Name="(Start) Time"/>
  <Alias Context="completionInstructions"
   Name="Record the start time (as complete as possible) when administration of study treatment started."/>
  <Alias Context="implementationNotes"
   Name="Recommend collecting the time a medication was started only when a protocol or data collection scenarios requires it. When collecting the time for an individual dose, the word &quot;start&quot; may be omitted from the Question Text and Prompt."/>
  <Alias Context="mappingInstructions"
   Name="This does not map directly to an SDTMIG variable. For the SDTM submission dataset, concatenate all collected CDASH START DATE and TIME components and populate the SDTMIG variable ECSTDTC in ISO 8601 format."
  />
 </ItemDef>
 <ItemDef OID="IT.ECENDAT" Name="ECENDAT" DataType="date">
  <Description>
   <TranslatedText xml:lang="en">ECENDAT</TranslatedText>
  </Description>
  <Question>
   <TranslatedText xml:lang="en">What was the ([intended/planned/actual]) ([study treatment/dose])
    (end) date?</TranslatedText>
  </Question>
  <Alias Context="prompt" Name="(End) Date"/>
  <Alias Context="completionInstructions"
   Name="Record the end date of the study treatment administration using this format (DD-MON-YYYY)."/>
  <Alias Context="implementationNotes"
   Name="Date when study treatment period stopped.If start date and end date are not expected to be on the same date, the collection of the end date is required. If the study design indicates that the start and end date are on the same day, the collection of the end date is not required because it can be assigned to be equal to the start date."/>
  <Alias Context="mappingInstructions"
   Name="This does not map directly to an SDTMIG variable. For the SDTM submission dataset, concatenate all collected CDASH END DATE and TIME components and populate the SDTMIG variable ECENDTC in ISO 8601 format."
  />
 </ItemDef>
 <ItemDef OID="IT.ECENTIM" Name="ECENTIM" DataType="time">
  <Description>
   <TranslatedText xml:lang="en">ECENTIM</TranslatedText>
  </Description>
  <Question>
   <TranslatedText xml:lang="en">What was the ([intended/planned/actual]) ([study treatment/dose])
    (end) time?</TranslatedText>
  </Question>
  <Alias Context="prompt" Name="(End) Time"/>
  <Alias Context="completionInstructions"
   Name="Record the time, (as complete as possible) when study treatment administration stopped (e.g., for infusions this is the time when the infusion ended)."/>
  <Alias Context="implementationNotes"
   Name="Recommend collecting the time a medication was ended when a protocol or data collection scenarios requires it. For infusions, the end time of the infusion is typically needed."/>
  <Alias Context="mappingInstructions"
   Name="This does not map directly to an SDTMIG variable. For the SDTM submission dataset, concatenate all collected CDASH END DATE and TIME components and populate the SDTMIG variable ECENDTC in ISO 8601 format."
  />
 </ItemDef>
 <ItemDef OID="IT.ECDSTXT" Name="ECDSTXT" DataType="text">
  <Description>
   <TranslatedText xml:lang="en">ECDSTXT</TranslatedText>
  </Description>
  <Question>
   <TranslatedText xml:lang="en">What was the dose (per administration) (of [study
    treatment/dose])?</TranslatedText>
  </Question>
  <Alias Context="prompt" Name="Dose"/>
  <Alias Context="completionInstructions"
   Name="Record the dose or amount of study treatment that was administered to/taken by the subject in the period recorded; from the start date/time to the end date/time inclusive."/>
  <Alias Context="implementationNotes"
   Name="Dose or amount taken for single administration of study treatment or per constant dosing interval recorded. Dose must be collected if it cannot be determined via other methods (e.g., from diary data, drug accountability data, protocol). Care should be taken when mapping ECDSTXT. The data collected in this dose text-format field should be separated or mapped to either ECDOSE if numeric or ECDOSTXT if text."/>
  <Alias Context="mappingInstructions"
   Name="This does not map directly to an SDTMIG variable. The data collected in this dose text-format field should be mapped to either ECDOSE if numeric or ECDOSTXT if text."
  />
 </ItemDef>
 <ItemDef OID="IT.ECDOSU" Name="ECDOSU" DataType="text">
  <Description>
   <TranslatedText xml:lang="en">ECDOSU</TranslatedText>
  </Description>
  <Question>
   <TranslatedText xml:lang="en">What were the units for the dose?</TranslatedText>
  </Question>
  <CodeListRef CodeListOID="CL.C71620.UNIT"/>
  <Alias Context="prompt" Name="Units"/>
  <Alias Context="completionInstructions"
   Name="Record the unit of dose or amount taken per period recorded (e.g., ng, mg, mg/kg)."/>
  <Alias Context="implementationNotes"
   Name="Unit of dose or amount taken per constant dosing interval recorded. Dose unit must be collected if it cannot be determined via other methods (e.g., determined from protocol, randomization data). The unit should be preprinted on the CRF or a field provided on the CRF to capture it. A CDASH Subset Controlled Terminology Codelist Name is available for dose and volume units. In blinded trials, the collected unit may be tablet, capsule, etc., since the actual unit is also blinded."/>
  <Alias Context="mappingInstructions"
   Name="Maps directly to the SDTMIG variable listed in the column with the heading SDTMIG Target."
  />
 </ItemDef>
 <ItemDef OID="IT.ECDOSFRQ" Name="ECDOSFRQ" DataType="text">
  <Description>
   <TranslatedText xml:lang="en">ECDOSFRQ</TranslatedText>
  </Description>
  <Question>
   <TranslatedText xml:lang="en">What was the frequency of [study treatment/dose]
    dosing?</TranslatedText>
  </Question>
  <CodeListRef CodeListOID="CL.C71113.FREQ"/>
  <Alias Context="prompt" Name="Frequency"/>
  <Alias Context="completionInstructions"
   Name="Record the frequency the study treatment was administered for a defined period of time (e.g., BID, QID, TID)."/>
  <Alias Context="implementationNotes"
   Name="This may be collected if it cannot be determined from other sources or if there are multiple options. When possible, the options for dose/amount frequency are pre-printed on the CRF. When collected, the recommendation is to collect dosing information in separate fields (e.g., ECDOSE, ECDOSEU, ECDOSFRQ) for specific and consistent data collection and to enable programmatically utilizing these data."/>
  <Alias Context="mappingInstructions"
   Name="Maps directly to the SDTMIG variable listed in the column with the heading SDTMIG Target."
  />
 </ItemDef>
 <ItemDef OID="IT.ECROUTE" Name="ECROUTE" DataType="text">
  <Description>
   <TranslatedText xml:lang="en">ECROUTE</TranslatedText>
  </Description>
  <Question>
   <TranslatedText xml:lang="en">What was the route of administration (of the [study
    treatment/dose])?</TranslatedText>
  </Question>
  <CodeListRef CodeListOID="CL.C66729.ROUTE"/>
  <Alias Context="prompt" Name="Route"/>
  <Alias Context="completionInstructions"
   Name="Record the route of administration (e.g., IV, ORAL, TRANSDERMAL) or enter the appropriate code from the code list."/>
  <Alias Context="implementationNotes"
   Name="This may be collected if it cannot be determined via other methods (e.g., from protocol) or if there are multiple options."/>
  <Alias Context="mappingInstructions"
   Name="Maps directly to the SDTMIG variable listed in the column with the heading SDTMIG Target."
  />
 </ItemDef>
 <ItemDef OID="IT.ECDOSRGM" Name="ECDOSRGM" DataType="text">
  <Description>
   <TranslatedText xml:lang="en">ECDOSRGM</TranslatedText>
  </Description>
  <Question>
   <TranslatedText xml:lang="en">What was the intended dose regimen?</TranslatedText>
  </Question>
  <Alias Context="prompt" Name="Intended Dose Regimen"/>
  <Alias Context="completionInstructions" Name="Record the regimen for the study medication."/>
  <Alias Context="implementationNotes"
   Name="The regimen information (e.g., TWO WEEKS ON, TWO WEEKS OFF) may further clarify the dose administration and dose frequency. This may be preprinted or collected. The sponsor may wish to create a codelist to collect this data consistently."/>
  <Alias Context="mappingInstructions"
   Name="Maps directly to the SDTMIG variable listed in the column with the heading SDTMIG Target."
  />
 </ItemDef>
 <ItemDef OID="IT.ECDOSADJ" Name="ECDOSADJ" DataType="text">
  <Description>
   <TranslatedText xml:lang="en">ECDOSADJ</TranslatedText>
  </Description>
  <Question>
   <TranslatedText xml:lang="en">Was the dose adjusted?</TranslatedText>
  </Question>
  <CodeListRef CodeListOID="CL.C66742.NY"/>
  <Alias Context="prompt" Name="(Dose) Adjusted"/>
  <Alias Context="completionInstructions"
   Name="Select either Yes or No to indicate whether there was a change in dosing."/>
  <Alias Context="implementationNotes"
   Name="Typically, the intent/purpose of collecting this field is to help with data cleaning and monitoring as it provides a definitive response regarding any dose changes. It provides verification that the associate field on the CRF (ECADJ) was deliberately left blank. However, the sponsor may collect whether the dose was adjusted, without collecting the reason for the change. When using ECMOOD, this field should not be used."/>
  <Alias Context="mappingInstructions"
   Name="When ECADJ is collected, does not map to an SDTMIG variable. The SDTM Annotated CRF is annotated to indicate that this field is NOT SUBMITTED. When ECADJ is not collected, the sponsor may submit this variable in SUPPEC."
  />
 </ItemDef>
 <ItemDef OID="IT.ECADJ" Name="ECADJ" DataType="text">
  <Description>
   <TranslatedText xml:lang="en">ECADJ</TranslatedText>
  </Description>
  <Question>
   <TranslatedText xml:lang="en">What was the reason the dose was adjusted?</TranslatedText>
  </Question>
  <Alias Context="prompt" Name="Reason Adjusted"/>
  <Alias Context="completionInstructions"
   Name="If there was a change in dosing, record the reason for change."/>
  <Alias Context="implementationNotes"
   Name="Captures the reason the dose was changed or modified. The reason may be chosen from a sponsor-defined list (e.g., adverse event, insufficient response) or entered as free text. May be used for variations from protocol-specified doses, or changes from expected doses. Used only when an adjustment is represented in EX dataset."/>
  <Alias Context="mappingInstructions"
   Name="Maps directly to the SDTMIG variable listed in the column with the heading SDTMIG Target."
  />
 </ItemDef>
 <ItemDef OID="IT.ECITRPYN" Name="ECITRPYN" DataType="text">
  <Description>
   <TranslatedText xml:lang="en">ECITRPYN</TranslatedText>
  </Description>
  <Question>
   <TranslatedText xml:lang="en">Was the [(study) treatment/dose] interrupted?</TranslatedText>
  </Question>
  <CodeListRef CodeListOID="CL.C66742.NY"/>
  <Alias Context="prompt" Name="[(Study) Treatment / Dose] Interrupted"/>
  <Alias Context="completionInstructions"
   Name="Record if there was an interruption in the study treatment or dosing."/>
  <Alias Context="implementationNotes"
   Name="The intent/purpose of collecting this field is to help with data cleaning and monitoring when the actual duration of the exposure is collected using the CDASH field ECCINTD. In some situations, if the actual duration of the interruption is not collected, or not derived, this information could be submitted in a SUPPEC.QVAL dataset where SUPPEC.QNAM = &quot;ECITRPYN&quot; and SUPPEC.QLABEL = &quot;Exposure Interrupted&quot;."/>
  <Alias Context="mappingInstructions"
   Name="Does not map to an SDTMIG variable. The SDTMIG Annotated CRF is annotated to indicate that this field is NOT SUBMITTED."
  />
 </ItemDef>
 <ItemDef OID="IT.ECCINTD" Name="ECCINTD" DataType="text">
  <Description>
   <TranslatedText xml:lang="en">ECCINTD</TranslatedText>
  </Description>
  <Question>
   <TranslatedText xml:lang="en">What was the duration of the treatment
    interruption?</TranslatedText>
  </Question>
  <Alias Context="prompt" Name="(Interruption) Duration"/>
  <Alias Context="completionInstructions" Name="Record the duration of treatment interruption."/>
  <Alias Context="implementationNotes"
   Name="This field is used to collect the duration of treatment interruption. In some situations, the duration of the interruption may not be collected but calculated from the treatment start and end times recorded elsewhere in the CRF."/>
  <Alias Context="mappingInstructions"
   Name="This does not map directly to an SDTMIG variable. This information could be submitted in a SUPPEC dataset as the value of SUPPEC.QVAL where SUPPEC.QNAM=&quot;ECITRPD&quot; and SUPPEC.QLABEL= &quot;Interruption Duration&quot;. Concatenate the collected treatment interruption duration and the duration unit components and create ECITRPD using ISO 8601 Period format. Refer to the current SDTM and SDTMIG for instructions on placement of non-standard variables in SDTM domains."
  />
 </ItemDef>
 <ItemDef OID="IT.ECCINTDU" Name="ECCINTDU" DataType="text">
  <Description>
   <TranslatedText xml:lang="en">ECCINTDU</TranslatedText>
  </Description>
  <Question>
   <TranslatedText xml:lang="en">What was the interruption duration unit?</TranslatedText>
  </Question>
  <CodeListRef CodeListOID="CL.C71620.UNIT"/>
  <Alias Context="prompt" Name="(Interruption Duration) Unit"/>
  <Alias Context="completionInstructions"
   Name="Record the unit (e.g., MINUTES, HOURS, DAYS) for the duration of treatment interruption."/>
  <Alias Context="implementationNotes"
   Name="The unit should be collected as a qualifier to the number for duration."/>
  <Alias Context="mappingInstructions"
   Name="This does not map directly to an SDTMIG variable. This information could be submitted in a SUPPEC dataset as the value of SUPPEC.QVAL where SUPPEC.QNAM = &quot;ECITRPD&quot; and SUPPEC.QLABEL= &quot;Interruption Duration&quot;. Concatenate the collected treatment interruption duration and the duration unit components and create ECITRPD using ISO 8601 Period format. Refer to the current SDTM and SDTMIG for instructions on placement of non-standard variables in SDTM domains."
  />
 </ItemDef>
 <ItemDef OID="IT.ECLOC" Name="ECLOC" DataType="text">
  <Description>
   <TranslatedText xml:lang="en">ECLOC</TranslatedText>
  </Description>
  <Question>
   <TranslatedText xml:lang="en">What was the anatomical location of the ([study treatment/dose])
    administration?</TranslatedText>
  </Question>
  <CodeListRef CodeListOID="CL.C74456.LOC"/>
  <Alias Context="prompt" Name="Anatomical Location"/>
  <Alias Context="completionInstructions"
   Name="Record the body location where the study treatment was administered (e.g., SHOULDER, HIP, ARM)."/>
  <Alias Context="implementationNotes"
   Name="Collected or preprinted when the sponsor needs to identify the specific anatomical location where the study treatment was administered. LAT, DIR, PORTOT are used to further describe the anatomical location."/>
  <Alias Context="mappingInstructions"
   Name="Maps directly to the SDTMIG variable listed in the column with the heading SDTMIG Target."
  />
 </ItemDef>
 <ItemDef OID="IT.ECLAT" Name="ECLAT" DataType="text">
  <Description>
   <TranslatedText xml:lang="en">ECLAT</TranslatedText>
  </Description>
  <Question>
   <TranslatedText xml:lang="en">What was the side of the anatomical location of the ([study
    treatment/dose]) administration?</TranslatedText>
  </Question>
  <CodeListRef CodeListOID="CL.C99073.LAT"/>
  <Alias Context="prompt" Name="Side"/>
  <Alias Context="completionInstructions"
   Name="Record the side of the body location where the study treatment was administered (e.g., Left, Right)."/>
  <Alias Context="implementationNotes"
   Name="Further details the laterality of the location where the study treatment was administered. This may be preprinted or collected. Sponsors may collect the data using a subset list of controlled terminology on the CRF."/>
  <Alias Context="mappingInstructions"
   Name="Maps directly to the SDTMIG variable listed in the column with the heading SDTMIG Target."
  />
 </ItemDef>
 <ItemDef OID="IT.ECDIR" Name="ECDIR" DataType="text">
  <Description>
   <TranslatedText xml:lang="en">ECDIR</TranslatedText>
  </Description>
  <Question>
   <TranslatedText xml:lang="en">What was the directionality of the anatomical location of the
    ([study treatment/dose]) administration?</TranslatedText>
  </Question>
  <CodeListRef CodeListOID="CL.C99074.DIR"/>
  <Alias Context="prompt" Name="Directionality"/>
  <Alias Context="completionInstructions"
   Name="Record the directionality of the body location where the study treatment was administered (e.g., Anterior, Lower, Proximal, Upper)."/>
  <Alias Context="implementationNotes"
   Name="May be preprinted or collected when the sponsor needs to identify the directionality of the anatomical location. Sponsors may collect the data using a subset list of controlled terminology on the CRF."/>
  <Alias Context="mappingInstructions"
   Name="Maps directly to the SDTMIG variable listed in the column with the heading SDTMIG Target."
  />
 </ItemDef>
 <ItemDef OID="IT.ECVAMT" Name="ECVAMT" DataType="Num">
  <Description>
   <TranslatedText xml:lang="en">ECVAMT</TranslatedText>
  </Description>
  <Question>
   <TranslatedText xml:lang="en">What was the total amount (Drug + Vehicle) (of [study
    treatment/dose]) administered?</TranslatedText>
  </Question>
  <Alias Context="prompt" Name="Total Amount (Drug + Vehicle)"/>
  <Alias Context="completionInstructions"
   Name="Record the total amount (treatment +vehicle) that was administered/given to the subject."/>
  <Alias Context="implementationNotes"
   Name="Administration amount that was given to the subject. 
 Note: should not be the diluent amount alone. The ECTRTV field may be collected if it cannot be determined from other sources."/>
  <Alias Context="mappingInstructions"
   Name="Maps directly to the SDTMIG variable listed in the column with the heading SDTMIG Target. The SDTM variable ECTRTV may also be populated during the process of creating the SDTM submission datasets."
  />
 </ItemDef>
 <ItemDef OID="IT.ECVAMTU" Name="ECVAMTU" DataType="text">
  <Description>
   <TranslatedText xml:lang="en">ECVAMTU</TranslatedText>
  </Description>
  <Question>
   <TranslatedText xml:lang="en">What was the unit for the amount (of [study treatment/dose])
    administered?</TranslatedText>
  </Question>
  <CodeListRef CodeListOID="CL.C71620.UNIT"/>
  <Alias Context="prompt" Name="Unit"/>
  <Alias Context="completionInstructions"
   Name="Record the unit of total amount (treatment +vehicle) administered/given to the subject (e.g., mL)."/>
  <Alias Context="implementationNotes" Name="Unit of the administration amount."/>
  <Alias Context="mappingInstructions"
   Name="Maps directly to the SDTMIG variable listed in the column with the heading SDTMIG Target."
  />
 </ItemDef>
 <ItemDef OID="IT.ECFLRT" Name="ECFLRT" DataType="Num">
  <Description>
   <TranslatedText xml:lang="en">ECFLRT</TranslatedText>
  </Description>
  <Question>
   <TranslatedText xml:lang="en">What was the [study treatment/dose] infusion rate?</TranslatedText>
  </Question>
  <Alias Context="prompt" Name="Infusion Rate"/>
  <Alias Context="completionInstructions"
   Name="Record the Rate of Infusion (e.g., if rate is 10 mL/min. Record 10 as the infusion rate)."/>
  <Alias Context="implementationNotes" Name="Infusion rate can be used to derive dose."/>
  <Alias Context="mappingInstructions"
   Name="This does not map directly to an SDTMIG variable. This information could be submitted in a SUPPEC dataset as the value of SUPPEC.QVAL where SUPPEC.QNAM=&quot;ECFLRT&quot; and SUPPEC.QLABEL= &quot;Infusion Rate&quot;. Refer to the current SDTM and SDTMIG for instructions on placement of non-standard variables in SDTM domains."
  />
 </ItemDef>
 <ItemDef OID="IT.ECFLRTU" Name="ECFLRTU" DataType="text">
  <Description>
   <TranslatedText xml:lang="en">ECFLRTU</TranslatedText>
  </Description>
  <Question>
   <TranslatedText xml:lang="en">What was the unit for the ([study treatment/dose]) infusion
    rate?</TranslatedText>
  </Question>
  <CodeListRef CodeListOID="CL.C71620.UNIT"/>
  <Alias Context="prompt" Name="Infusion Rate Unit"/>
  <Alias Context="completionInstructions"
   Name="Record the unit for the infusion rate (e.g., mL/min)."/>
  <Alias Context="implementationNotes" Name="Unit of the infusion rate."/>
  <Alias Context="mappingInstructions"
   Name="This does not map directly to an SDTMIG variable. This information could be submitted in a SUPPEC dataset as the value of SUPPEC.QVAL where SUPPEC.QNAM=&quot;ECFLRTU&quot; and SUPPEC.QLABEL= &quot;Infusion Rate Unit&quot;. Refer to the current SDTM and SDTMIG for instructions on placement of non-standard variables in SDTM domains."
  />
 </ItemDef>
 <ItemDef OID="IT.ECTPT" Name="ECTPT" DataType="text">
  <Description>
   <TranslatedText xml:lang="en">ECTPT</TranslatedText>
  </Description>
  <Question>
   <TranslatedText xml:lang="en">What was the planned time point for [study
    treatment/dose]?</TranslatedText>
  </Question>
  <Alias Context="prompt" Name="[Planned Time Point Name]"/>
  <Alias Context="completionInstructions"
   Name="Record the planned time point of study treatment administration if not pre-printed on the CRF."/>
  <Alias Context="implementationNotes"
   Name="Planned time points are needed to differentiate multiple sequential assessments. It is recommended that time points should be preprinted on the CRF rather than collected in a field that requires the site to enter text. If the form is laid out as a grid, then words such as Planned Time Point can be included as the column header."/>
  <Alias Context="mappingInstructions"
   Name="Maps directly to the SDTMIG variable listed in the column with the heading SDTMIG Target. See SDTMIG for additional information on representing time points. The SDTMIG time point anchors ECTPTREF (text description) and ECRFTDTC (date/time) may be needed, as well as SDTMIG variables ECTPTNUM, ECELTM."
  />
 </ItemDef>
 <ItemDef OID="IT.ECTRTCMP" Name="ECTRTCMP" DataType="text">
  <Description>
   <TranslatedText xml:lang="en">ECTRTCMP</TranslatedText>
  </Description>
  <Question>
   <TranslatedText xml:lang="en">Did the subject complete the full course of [study
    treatment/dose]?</TranslatedText>
  </Question>
  <CodeListRef CodeListOID="CL.C66742.NY"/>
  <Alias Context="prompt" Name="Completed Treatment"/>
  <Alias Context="completionInstructions"
   Name="Select either Yes or No to indicate whether subject has completed the full course of treatment."/>
  <Alias Context="implementationNotes"
   Name="Depending on how the study treatment details are collected via the CRF/eCRF, it may be possible to derive those data if the regimen data are collected."/>
  <Alias Context="mappingInstructions"
   Name="This does not map directly to an SDTMIG variable. This information could be submitted in a SUPPEC dataset as the value of SUPPEC.QVAL where SUPPEC.QNAM = &quot;ECTRTCMP&quot; and SUPPEC.QLABEL =&quot;Completed Treatment&quot;. Refer to the current SDTM and SDTMIG for instructions on placement of non-standard variables in SDTM domains."
  />
 </ItemDef>
 <ItemDef OID="IT.EXYN" Name="EXYN" DataType="text">
  <Description>
   <TranslatedText xml:lang="en">EXYN</TranslatedText>
  </Description>
  <Question>
   <TranslatedText xml:lang="en">Were any[study treatment/dose] taken?</TranslatedText>
  </Question>
  <CodeListRef CodeListOID="CL.C66742.NY"/>
  <Alias Context="prompt" Name="Any Study Treatments"/>
  <Alias Context="completionInstructions"
   Name="Indicate if the subject took any study medications. If Yes, include the appropriate details where indicated."/>
  <Alias Context="implementationNotes"
   Name="The intent/purpose of collecting this field is to help with data cleaning and monitoring. It provides verification that all other fields on the CRF were deliberately left blank.The EXYN variable is a cleaning or EDC convention meant to indicate that the exposure form should be completed or inserted into the case book."/>
  <Alias Context="mappingInstructions"
   Name="Does not map to an SDTMIG variable. The SDTM aCRF is annotated to indicate that this field is NOT SUBMITTED."
  />
 </ItemDef>
 <ItemDef OID="IT.EXCAT" Name="EXCAT" DataType="text">
  <Description>
   <TranslatedText xml:lang="en">EXCAT</TranslatedText>
  </Description>
  <Question>
   <TranslatedText xml:lang="en">What is the category of the [study treatment/dose]
    ?</TranslatedText>
  </Question>
  <Alias Context="prompt" Name="[Study Treatment Category]; NULL"/>
  <Alias Context="completionInstructions"
   Name="Record the study treatment category, if not preprinted on the CRF."/>
  <Alias Context="implementationNotes"
   Name="Sponsor-defined controlled terminology. This would most commonly be either a heading or a preprinted category value on the CRF, and not a question to which the site would provide an answer. If a question is asked, the response would typically be a sponsor-defined codelist. If the form is laid out as a grid, then words such as &quot;Category&quot; can be included as the column header."/>
  <Alias Context="mappingInstructions"
   Name="Maps directly to the SDTMIG variable listed in the column with the heading SDTMIG Target."
  />
 </ItemDef>
 <ItemDef OID="IT.EXSCAT" Name="EXSCAT" DataType="text">
  <Description>
   <TranslatedText xml:lang="en">EXSCAT</TranslatedText>
  </Description>
  <Question>
   <TranslatedText xml:lang="en">What is the subcategory of the [study treatment/dose]
    ?</TranslatedText>
  </Question>
  <Alias Context="prompt" Name="[Study Treatment Subcategory]; NULL"/>
  <Alias Context="completionInstructions"
   Name="Record the study treatment subcategory, if not preprinted on the CRF."/>
  <Alias Context="implementationNotes"
   Name="Sponsor-defined controlled terminology. This would most commonly be preprinted on the CRF or screen and prepopulated in the data management system. This is not typically a question to which the site would provide an answer. EXSCAT can only be used if there is an EXCAT and it must be a subcategorization of EXCAT."/>
  <Alias Context="mappingInstructions"
   Name="Maps directly to the SDTMIG variable listed in the column with the heading SDTMIG Target."
  />
 </ItemDef>
 <ItemDef OID="IT.EXTRT" Name="EXTRT" DataType="text">
  <Description>
   <TranslatedText xml:lang="en">EXTRT</TranslatedText>
  </Description>
  <Question>
   <TranslatedText xml:lang="en">What was the [study treatment/investigational product]
    name?</TranslatedText>
  </Question>
  <Alias Context="prompt" Name="[Study Treatment/Investigational Product Name]"/>
  <Alias Context="completionInstructions" Name="Record the name of study treatment."/>
  <Alias Context="implementationNotes"
   Name="EXTRT captures the name of the investigational treatment. This is typically collected for open label studies and populated for blinded studies during the SDTM-based dataset creation. Since EXTRT is the SDTMIG topic variable, it is a required variable in SDTM and must have a value in CDASH or a plan to populate it in the SDTM submission datasets (i.e., collected or populated from other sources)."/>
  <Alias Context="mappingInstructions"
   Name="Maps directly to the SDTMIG variable listed in the column with the heading SDTMIG Target."
  />
 </ItemDef>
 <ItemDef OID="IT.EXREFID" Name="EXREFID" DataType="text">
  <Description>
   <TranslatedText xml:lang="en">EXREFID</TranslatedText>
  </Description>
  <Question>
   <TranslatedText xml:lang="en">What is the [study treatment/dose] label
    identifier?</TranslatedText>
  </Question>
  <Alias Context="prompt" Name="Treatment Label Identifier"/>
  <Alias Context="completionInstructions" Name="Record treatment label identifier."/>
  <Alias Context="implementationNotes"
   Name="This packaging identifier (e.g., kit number, bottle label, vial identifier) may be collected in different ways (e.g., affixing label onto CRF, scanning a bar code). For some study dosing regimens, greater granularity for treatment identifiers may be needed."/>
  <Alias Context="mappingInstructions"
   Name="Maps directly to the SDTMIG variable listed in the column with the heading SDTMIG Target."
  />
 </ItemDef>
 <ItemDef OID="IT.EXLOT" Name="EXLOT" DataType="text">
  <Description>
   <TranslatedText xml:lang="en">EXLOT</TranslatedText>
  </Description>
  <Question>
   <TranslatedText xml:lang="en">What was the lot number of the[study treatment/dose]
    used?</TranslatedText>
  </Question>
  <Alias Context="prompt" Name="Lot Number"/>
  <Alias Context="completionInstructions"
   Name="Record the lot number that appears on the container holding the study treatment."/>
  <Alias Context="implementationNotes"
   Name="The Lot Number identifies the manufacturing batch of the study treatment. In open label studies, the reference number on the study treatment container may represent an actual Lot Number and is submitted using EXLOT. This variable may be populated during the process of creating the SDTM submission datasets. Do not collect other identification variables in this field."/>
  <Alias Context="mappingInstructions"
   Name="Maps directly to the SDTMIG variable listed in the column with the heading SDTMIG Target."
  />
 </ItemDef>
 <ItemDef OID="IT.EXFAST" Name="EXFAST" DataType="text">
  <Description>
   <TranslatedText xml:lang="en">EXFAST</TranslatedText>
  </Description>
  <Question>
   <TranslatedText xml:lang="en">Was the subject fasting?</TranslatedText>
  </Question>
  <CodeListRef CodeListOID="CL.C66742.NY"/>
  <Alias Context="prompt" Name="Fasting"/>
  <Alias Context="completionInstructions"
   Name="Record whether the subject was fasting prior to the study treatment being taken."/>
  <Alias Context="implementationNotes"
   Name="Some study treatments may have a food effect and it is important to know whether the dose was taken while the subject was fasted."/>
  <Alias Context="mappingInstructions"
   Name="Maps directly to the SDTMIG variable listed in the column with the heading SDTMIG Target."
  />
 </ItemDef>
 <ItemDef OID="IT.EXDOSFRM" Name="EXDOSFRM" DataType="text">
  <Description>
   <TranslatedText xml:lang="en">EXDOSFRM</TranslatedText>
  </Description>
  <Question>
   <TranslatedText xml:lang="en">What was the dose form of the [study treatment/dose]
    ?</TranslatedText>
  </Question>
  <CodeListRef CodeListOID="CL.C66726.FRM"/>
  <Alias Context="prompt" Name="Dose Form"/>
  <Alias Context="completionInstructions"
   Name="Record the dose form (e.g., SOLUTION, TABLET, LOTION) or enter the appropriate code from the code list."/>
  <Alias Context="implementationNotes"
   Name="This must be collected if it cannot be determined from other sources or if there are multiple options."/>
  <Alias Context="mappingInstructions"
   Name="Maps directly to the SDTMIG variable listed in the column with the heading SDTMIG Target."
  />
 </ItemDef>
 <ItemDef OID="IT.EXSTDAT" Name="EXSTDAT" DataType="date">
  <Description>
   <TranslatedText xml:lang="en">EXSTDAT</TranslatedText>
  </Description>
  <Question>
   <TranslatedText xml:lang="en">What was the ([intended/planned/actual]) ([study treatment/dose])
    (start) date?</TranslatedText>
  </Question>
  <Alias Context="prompt" Name="(Start) Date"/>
  <Alias Context="completionInstructions"
   Name="Record the start date of the study treatment administration using this format (DD-MON-YYYY)."/>
  <Alias Context="implementationNotes"
   Name="Date when constant dosing interval of the study treatment started or single administration occurred. When collecting the date for an individual dose, the word &quot;start&quot; may be omitted from the Question Text and Prompt."/>
  <Alias Context="mappingInstructions"
   Name="This does not map directly to an SDTMIG variable. For the SDTM submission dataset, concatenate all collected CDASH START DATE and TIME components and populate the SDTMIG variable EXSTDTC in ISO 8601 format."
  />
 </ItemDef>
 <ItemDef OID="IT.EXSTTIM" Name="EXSTTIM" DataType="time">
  <Description>
   <TranslatedText xml:lang="en">EXSTTIM</TranslatedText>
  </Description>
  <Question>
   <TranslatedText xml:lang="en">What was the ([intended/planned/actual]) ([study treatment/dose])
    (start) time?</TranslatedText>
  </Question>
  <Alias Context="prompt" Name="(Start) Time"/>
  <Alias Context="completionInstructions"
   Name="Record the start time (as complete as possible) when administration of study treatment started."/>
  <Alias Context="implementationNotes"
   Name="Recommend collecting the time a medication was started only when a protocol or data collection scenarios requires it."/>
  <Alias Context="mappingInstructions"
   Name="This does not map directly to an SDTMIG variable. For the SDTM submission dataset, concatenate all collected CDASH START DATE and TIME components and populate the SDTMIG variable EXSTDTC in ISO 8601 format."
  />
 </ItemDef>
 <ItemDef OID="IT.EXENDAT" Name="EXENDAT" DataType="date">
  <Description>
   <TranslatedText xml:lang="en">EXENDAT</TranslatedText>
  </Description>
  <Question>
   <TranslatedText xml:lang="en">What was the ([intended/planned/actual]) ([study treatment/dose])
    (end) date?</TranslatedText>
  </Question>
  <Alias Context="prompt" Name="(End) Date"/>
  <Alias Context="completionInstructions"
   Name="Record the end date or last date of administration of study treatment using this format (DD-MON-YYYY)."/>
  <Alias Context="implementationNotes"
   Name="If start date and end date are not expected to be on the same date, the end date is required. If the study design indicates that the start and end date are on the same day, the end date is not required since it can be assigned to be equal to the start date."/>
  <Alias Context="mappingInstructions"
   Name="This does not map directly to an SDTMIG variable. For the SDTM submission dataset, concatenate all collected CDASH END DATE and TIME components and populate the SDTMIG variable EXENDTC in ISO 8601 format."
  />
 </ItemDef>
 <ItemDef OID="IT.EXENTIM" Name="EXENTIM" DataType="time">
  <Description>
   <TranslatedText xml:lang="en">EXENTIM</TranslatedText>
  </Description>
  <Question>
   <TranslatedText xml:lang="en">What was the ([intended/planned/actual]) ([study treatment/dose])
    (end) time?</TranslatedText>
  </Question>
  <Alias Context="prompt" Name="(End) Time"/>
  <Alias Context="completionInstructions"
   Name="Record the time, (as complete as possible) when study treatment administration stopped (e.g., for infusions this is the time when the infusion ended)."/>
  <Alias Context="implementationNotes"
   Name="Recommend collecting the time a medication was ended when a protocol or data collection scenarios requires it. For infusions, the end time of the infusion is typically needed."/>
  <Alias Context="mappingInstructions"
   Name="This does not map directly to an SDTMIG variable. For the SDTM submission dataset, concatenate all collected CDASH END DATE and TIME components and populate the SDTMIG variable EXENDTC in ISO 8601 format."
  />
 </ItemDef>
 <ItemDef OID="IT.EXDSTXT" Name="EXDSTXT" DataType="text">
  <Description>
   <TranslatedText xml:lang="en">EXDSTXT</TranslatedText>
  </Description>
  <Question>
   <TranslatedText xml:lang="en">What was the dose [per administration] (of [study treatment/dose])
    ?</TranslatedText>
  </Question>
  <Alias Context="prompt" Name="Dose"/>
  <Alias Context="completionInstructions"
   Name="Record the dose or amount of study treatment that was administered to/taken by the subject in the period recorded; from the start date/time to the end date/time inclusive."/>
  <Alias Context="implementationNotes"
   Name="Dose or amount taken for single administration of study treatment or per constant dosing interval recorded. Dose must be collected if it cannot be determined via other methods (e.g., from diary data, drug accountability data, protocol). The data collected in this dose text-format field should be mapped to either SDTMIG variable EXDOSE (if numeric) or EXDOSTXT (if text)."/>
  <Alias Context="mappingInstructions"
   Name="This does not map directly to an SDTMIG variable. Numeric values map to EXDOSE in SDTM. Non-numeric values (e.g., 200-400) map to EXDOSTXT in SDTM."
  />
 </ItemDef>
 <ItemDef OID="IT.EXDOSU" Name="EXDOSU" DataType="text">
  <Description>
   <TranslatedText xml:lang="en">EXDOSU</TranslatedText>
  </Description>
  <Question>
   <TranslatedText xml:lang="en">What was the unit for the dose?</TranslatedText>
  </Question>
  <CodeListRef CodeListOID="CL.C71620.UNIT"/>
  <Alias Context="prompt" Name="Unit"/>
  <Alias Context="completionInstructions"
   Name="Record the unit of dose or amount taken per period recorded (e.g., ng, mg, mg/kg)."/>
  <Alias Context="implementationNotes"
   Name="Unit of dose or amount taken per constant dosing interval recorded. Dose unit must be collected if it cannot be determined via other methods (e.g., from protocol, randomization data). The unit should be preprinted on the CRF or a field provided on the CRF to capture it. A CDASH Subset Controlled Terminology Codelist Name is available for general dose and volume units."/>
  <Alias Context="mappingInstructions"
   Name="Maps directly to the SDTMIG variable listed in the column with the heading SDTMIG Target."
  />
 </ItemDef>
 <ItemDef OID="IT.EXDOSFRQ" Name="EXDOSFRQ" DataType="text">
  <Description>
   <TranslatedText xml:lang="en">EXDOSFRQ</TranslatedText>
  </Description>
  <Question>
   <TranslatedText xml:lang="en">What was the frequency of[study treatment/dose]
    dosing?</TranslatedText>
  </Question>
  <CodeListRef CodeListOID="CL.C71113.FREQ"/>
  <Alias Context="prompt" Name="Frequency"/>
  <Alias Context="completionInstructions"
   Name="Record the frequency the study treatment was administered for a defined period of time."/>
  <Alias Context="implementationNotes"
   Name="This may be collected if it cannot be determined from other sources or if there are multiple options. When possible, the options for dose/amount frequency are preprinted on the CRF. When collected, the recommendation is to collect dosing information in separate fields (e.g., ECDOSE, ECDOSEU, ECDOSFRQ) for specific and consistent data collection and to enable programmatically utilizing these data."/>
  <Alias Context="mappingInstructions"
   Name="Maps directly to the SDTMIG variable listed in the column with the heading SDTMIG Target."
  />
 </ItemDef>
 <ItemDef OID="IT.EXROUTE" Name="EXROUTE" DataType="text">
  <Description>
   <TranslatedText xml:lang="en">EXROUTE</TranslatedText>
  </Description>
  <Question>
   <TranslatedText xml:lang="en">What was the route of administration (of the [study treatment/dose]
    )?</TranslatedText>
  </Question>
  <CodeListRef CodeListOID="CL.C66729.ROUTE"/>
  <Alias Context="prompt" Name="Route"/>
  <Alias Context="completionInstructions"
   Name="Record the route of administration (e.g., IV, ORAL, TRANSDERMAL) or enter the appropriate code from the code list."/>
  <Alias Context="implementationNotes"
   Name="This may be collected if it cannot be determined via other methods (e.g., from protocol) or if there are multiple options."/>
  <Alias Context="mappingInstructions"
   Name="Maps directly to the SDTMIG variable listed in the column with the heading SDTMIG Target."
  />
 </ItemDef>
 <ItemDef OID="IT.EXDOSRGM" Name="EXDOSRGM" DataType="text">
  <Description>
   <TranslatedText xml:lang="en">EXDOSRGM</TranslatedText>
  </Description>
  <Question>
   <TranslatedText xml:lang="en">What was the intended dose regimen (of the [study treatment/dose]
    )?</TranslatedText>
  </Question>
  <Alias Context="prompt" Name="Intended Dose Regimen"/>
  <Alias Context="completionInstructions" Name="Record the regimen for the study medication."/>
  <Alias Context="implementationNotes"
   Name="The regimen information may further clarify the dose administration and dose frequency (e.g., TWO WEEKS ON, TWO WEEKS OFF). This may be preprinted or collected. The sponsor may wish to create a codelist to collect this data consistently."/>
  <Alias Context="mappingInstructions"
   Name="Maps directly to the SDTMIG variable listed in the column with the heading SDTMIG Target."
  />
 </ItemDef>
 <ItemDef OID="IT.EXDOSADJ" Name="EXDOSADJ" DataType="text">
  <Description>
   <TranslatedText xml:lang="en">EXDOSADJ</TranslatedText>
  </Description>
  <Question>
   <TranslatedText xml:lang="en">Was the dose adjusted?</TranslatedText>
  </Question>
  <CodeListRef CodeListOID="CL.C66742.NY"/>
  <Alias Context="prompt" Name="(Dose) Adjusted"/>
  <Alias Context="completionInstructions"
   Name="Select either Yes or No to indicate whether there was a change in dosing."/>
  <Alias Context="implementationNotes"
   Name="Typically, the intent/purpose of collecting this field is to help with data cleaning and monitoring as it provides a definitive response regarding any dose changes. It provides verification that the associate field on the CRF (EXADJ) was deliberately left blank. However, the sponsor may collect whether the dose was adjusted, without collecting the reason for the change."/>
  <Alias Context="mappingInstructions"
   Name="When EXADJ is collected, does not map to an SDTMIG variable. The SDTM Annotated CRF is annotated to indicate that this field is NOT SUBMITTED. When EXADJ is not collected, the sponsor may submit this variable as a SUPPQ."
  />
 </ItemDef>
 <ItemDef OID="IT.EXADJ" Name="EXADJ" DataType="text">
  <Description>
   <TranslatedText xml:lang="en">EXADJ</TranslatedText>
  </Description>
  <Question>
   <TranslatedText xml:lang="en">What was the reason the dose was adjusted (from
    planned)?</TranslatedText>
  </Question>
  <Alias Context="prompt" Name="Reason Adjusted"/>
  <Alias Context="completionInstructions"
   Name="If there was a change in dosing, record the reason for change."/>
  <Alias Context="implementationNotes"
   Name="Captures the reason the dose was changed or modified. The reason may be chosen from a sponsor-defined list (e.g., adverse event, insufficient response) or entered as free text. May be used for variations from protocol-specified doses, or changes from expected doses."/>
  <Alias Context="mappingInstructions"
   Name="Maps directly to the SDTMIG variable listed in the column with the heading SDTMIG Target."
  />
 </ItemDef>
 <ItemDef OID="IT.EXITRPYN" Name="EXITRPYN" DataType="text">
  <Description>
   <TranslatedText xml:lang="en">EXITRPYN</TranslatedText>
  </Description>
  <Question>
   <TranslatedText xml:lang="en">Was the [(study) treatment/dose] interrupted?</TranslatedText>
  </Question>
  <CodeListRef CodeListOID="CL.C66742.NY"/>
  <Alias Context="prompt" Name="[(Study) Treatment / Dose] Interrupted"/>
  <Alias Context="completionInstructions"
   Name="Record if there was an interruption in the study treatment or dosing."/>
  <Alias Context="implementationNotes"
   Name="The intent/purpose of collecting this field is to help with data cleaning and monitoring when the actual duration of the exposure is collected using the CDASH field EXCINTD. In some situations, if the actual duration of the interruption is not collected, or not derived, this information could be submitted in a SUPPEX.QVAL dataset where SUPPEX.QNAM = &quot;EXITRPYN&quot; and SUPPEX.QLABEL = &quot;Exposure Interrupted&quot;."/>
  <Alias Context="mappingInstructions"
   Name="Does not map to an SDTMIG variable. The SDTMIG Annotated CRF is annotated to indicate that this field is NOT SUBMITTED."
  />
 </ItemDef>
 <ItemDef OID="IT.EXCINTD" Name="EXCINTD" DataType="text">
  <Description>
   <TranslatedText xml:lang="en">EXCINTD</TranslatedText>
  </Description>
  <Question>
   <TranslatedText xml:lang="en">If the dose was interrupted, how long was the
    interruption?</TranslatedText>
  </Question>
  <Alias Context="prompt" Name="(Interruption) Duration"/>
  <Alias Context="completionInstructions" Name="Record the duration of treatment interruption."/>
  <Alias Context="implementationNotes"
   Name="In some situations, the duration of the interruption may be calculated from the administration start and end times recorded elsewhere in the CRF."/>
  <Alias Context="mappingInstructions"
   Name="This does not map directly to an SDTMIG variable. This information could be submitted in a SUPPEX dataset as the value of SUPPEX.QVAL where SUPPEX.QNAM=&quot;EXITRPD&quot; and SUPPEX.QLABEL= &quot;Interruption Duration&quot;. Concatenate the collected treatment interruption duration and the duration unit components and create EXITRPD using ISO 8601 Period format. Refer to the current SDTM and SDTMIG for instructions on placement of non-standard variables in SDTM domains."
  />
 </ItemDef>
 <ItemDef OID="IT.EXCINTDU" Name="EXCINTDU" DataType="text">
  <Description>
   <TranslatedText xml:lang="en">EXCINTDU</TranslatedText>
  </Description>
  <Question>
   <TranslatedText xml:lang="en">If the dose was interrupted, what were the units for the
    interruption duration?</TranslatedText>
  </Question>
  <CodeListRef CodeListOID="CL.C71620.UNIT"/>
  <Alias Context="prompt" Name="(Interruption Duration) Unit"/>
  <Alias Context="completionInstructions"
   Name="Record the unit (e.g., MINUTES, HOURS, DAYS) for the duration of treatment interruption."/>
  <Alias Context="implementationNotes"
   Name="The unit should be collected and converted into ISO 8601 period format."/>
  <Alias Context="mappingInstructions"
   Name="This does not map directly to an SDTMIG variable. This information could be submitted in a SUPPEX dataset as the value of SUPPEX.QVAL where SUPPEX.QNAM = &quot;EXITRPD&quot; and SUPPEX.QLABEL= &quot;Interruption Duration&quot;. Concatenate the collected treatment interruption duration and the duration unit components and create EXITRPDusing ISO 8601 Period format. Refer to the current SDTM and SDTMIG for instructions on placement of non-standard variables in SDTM domains."
  />
 </ItemDef>
 <ItemDef OID="IT.EXLOC" Name="EXLOC" DataType="text">
  <Description>
   <TranslatedText xml:lang="en">EXLOC</TranslatedText>
  </Description>
  <Question>
   <TranslatedText xml:lang="en">What was the anatomical location of the ([study treatment/dose] )
    administration?</TranslatedText>
  </Question>
  <CodeListRef CodeListOID="CL.C74456.LOC"/>
  <Alias Context="prompt" Name="Anatomical Location"/>
  <Alias Context="completionInstructions"
   Name="Record the body location where the study treatment was administered (e.g., SHOULDER, HIP, ARM)."/>
  <Alias Context="implementationNotes"
   Name="Collected or preprinted when the sponsor needs to identify the specific anatomical location where the study treatment was administered. LAT, DIR, PORTOT are used to further describe the anatomical location."/>
  <Alias Context="mappingInstructions"
   Name="Maps directly to the SDTMIG variable listed in the column with the heading SDTMIG Target."
  />
 </ItemDef>
 <ItemDef OID="IT.EXVAMT" Name="EXVAMT" DataType="Num">
  <Description>
   <TranslatedText xml:lang="en">EXVAMT</TranslatedText>
  </Description>
  <Question>
   <TranslatedText xml:lang="en">What was the total amount (Drug + Vehicle)(of [study
    treatment/dose] ) administered?</TranslatedText>
  </Question>
  <Alias Context="prompt" Name="Total Amount"/>
  <Alias Context="completionInstructions"
   Name="Record the total amount (treatment +vehicle) that was administered/given to the subject."/>
  <Alias Context="implementationNotes"
   Name="Administration amount that was given to the subject. Note: should not be the diluent amount alone. The ECTRTV field may be collected if it cannot be determined from other sources."/>
  <Alias Context="mappingInstructions"
   Name="Maps directly to the SDTMIG variable listed in the column with the heading SDTMIG Target. The SDTM variable ECTRTV may also be populated during the process of creating the SDTM submission datasets."
  />
 </ItemDef>
 <ItemDef OID="IT.EXVAMTU" Name="EXVAMTU" DataType="text">
  <Description>
   <TranslatedText xml:lang="en">EXVAMTU</TranslatedText>
  </Description>
  <Question>
   <TranslatedText xml:lang="en">What was the unit for the amount (of [study treatment/dose] )
    administered?</TranslatedText>
  </Question>
  <CodeListRef CodeListOID="CL.C71620.UNIT"/>
  <Alias Context="prompt" Name="Unit"/>
  <Alias Context="completionInstructions"
   Name="Record the unit of total amount (treatment +vehicle) administered/given to the subject (e.g., mL)."/>
  <Alias Context="implementationNotes"
   Name="Unit of the administration amount. A CDASH Subset Controlled Terminology Codelist Name is available for dose and volume units."/>
  <Alias Context="mappingInstructions"
   Name="Maps directly to the SDTMIG variable listed in the column with the heading SDTMIG Target."
  />
 </ItemDef>
 <ItemDef OID="IT.EXFLRT" Name="EXFLRT" DataType="Num">
  <Description>
   <TranslatedText xml:lang="en">EXFLRT</TranslatedText>
  </Description>
  <Question>
   <TranslatedText xml:lang="en">What was the [study treatment/dose] infusion rate?</TranslatedText>
  </Question>
  <Alias Context="prompt" Name="Infusion Rate"/>
  <Alias Context="completionInstructions"
   Name="Record the Rate of Infusion (e.g., if rate is 10 mL/min. Record 10 as the infusion rate)."/>
  <Alias Context="implementationNotes" Name="Infusion rate can be used to derive dose."/>
  <Alias Context="mappingInstructions"
   Name="This does not map directly to an SDTMIG variable. This information could be submitted in a SUPPEX dataset as the value of SUPPEX.QVAL where SUPPEX.QNAM = &quot;EXFLRT&quot; and SUPPEX.QLABEL= &quot;Infusion Rate&quot;. Refer to the current SDTM and SDTMIG for instructions on placement of non-standard variables in SDTM domains."
  />
 </ItemDef>
 <ItemDef OID="IT.EXFLRTU" Name="EXFLRTU" DataType="text">
  <Description>
   <TranslatedText xml:lang="en">EXFLRTU</TranslatedText>
  </Description>
  <Question>
   <TranslatedText xml:lang="en">What were the units for the [study treatment/dose] infusion
    rate?</TranslatedText>
  </Question>
  <CodeListRef CodeListOID="CL.C71620.UNIT"/>
  <Alias Context="prompt" Name="(Infusion Rate) Unit"/>
  <Alias Context="completionInstructions"
   Name="Record the unit for the infusion rate (e.g., mL/min)."/>
  <Alias Context="implementationNotes" Name="Unit of the infusion rate."/>
  <Alias Context="mappingInstructions"
   Name="This does not map directly to an SDTMIG variable. This information could be submitted in a SUPPEX dataset as the value of SUPPEX.QVAL where SUPPEX.QNAM =&quot;EXFLRTU&quot; and SUPPEX.QLABEL=&quot;Infusion Rate Unit&quot;. Refer to the current SDTM and SDTMIG for instructions on placement of non-standard variables in SDTM domains."
  />
 </ItemDef>
 <ItemDef OID="IT.EXTPT" Name="EXTPT" DataType="text">
  <Description>
   <TranslatedText xml:lang="en">EXTPT</TranslatedText>
  </Description>
  <Question>
   <TranslatedText xml:lang="en">What was the planned time point for [study treatment/dose]
    ?</TranslatedText>
  </Question>
  <Alias Context="prompt" Name="[Planned Time Point Name]"/>
  <Alias Context="completionInstructions"
   Name="Record the planned time point of study treatment administration if not preprinted on the CRF."/>
  <Alias Context="implementationNotes"
   Name="Planned time points are needed to differentiate multiple sequential assessments. It is recommended that time points should be preprinted on the CRF rather than collected in a field that requires the site to enter text. If the form is laid out as a grid, then words such as Planned Time Point can be included as the column header."/>
  <Alias Context="mappingInstructions"
   Name="Maps directly to the SDTMIG variable listed in the column with the heading SDTMIG Target. See SDTMIG for additional information on representing time points. The SDTMIG time point anchors EXTPTREF (text description) and EXRFTDTC (date/time) may be needed, as well as SDTMIG variables EXTPTNUM, EXELTM."
  />
 </ItemDef>
 <ItemDef OID="IT.EXTRTCMP" Name="EXTRTCMP" DataType="text">
  <Description>
   <TranslatedText xml:lang="en">EXTRTCMP</TranslatedText>
  </Description>
  <Question>
   <TranslatedText xml:lang="en">Did the subject complete the full course of [study treatment/dose]
    ?</TranslatedText>
  </Question>
  <CodeListRef CodeListOID="CL.C66742.NY"/>
  <Alias Context="prompt" Name="Completed Treatment"/>
  <Alias Context="completionInstructions"
   Name="Select either Yes or No to indicate whether subject has completed the full course of treatment."/>
  <Alias Context="implementationNotes"
   Name="Depending on how the study treatment details are collected via the CRF/eCRF, it may be possible to derive those data if the regimen data are collected."/>
  <Alias Context="mappingInstructions"
   Name="This does not map directly to an SDTMIG variable. This information could be submitted in a SUPPEX dataset as the value of SUPPEX.QVAL where SUPPEX.QNAM = &quot;EXTRTCMP&quot; and SUPPEX.QLABEL=&quot; Completed Treatment&quot;. Refer to the current SDTM and SDTMIG for instructions on placement of non-standard variables in SDTM domains."
  />
 </ItemDef>
 <ItemDef OID="IT.EXLAT" Name="EXLAT" DataType="text">
  <Description>
   <TranslatedText xml:lang="en">EXLAT</TranslatedText>
  </Description>
  <Question>
   <TranslatedText xml:lang="en">What was the side of the anatomical location of the ([study
    treatment/dose] ) administration?</TranslatedText>
  </Question>
  <CodeListRef CodeListOID="CL.C99073.LAT"/>
  <Alias Context="prompt" Name="Side"/>
  <Alias Context="completionInstructions"
   Name="Record the side of the body location where the study treatment was administered (e.g., Left, Right)."/>
  <Alias Context="implementationNotes"
   Name="Further details the laterality of the location where the study treatment was administered. This may be preprinted or collected. Sponsors may collect the data using a subset list of controlled terminology on the CRF."/>
  <Alias Context="mappingInstructions"
   Name="Maps directly to the SDTMIG variable listed in the column with the heading SDTMIG Target."
  />
 </ItemDef>
 <ItemDef OID="IT.EXDIR" Name="EXDIR" DataType="text">
  <Description>
   <TranslatedText xml:lang="en">EXDIR</TranslatedText>
  </Description>
  <Question>
   <TranslatedText xml:lang="en">What was the directionality of the anatomical location of the
    ([study treatment/dose] ) administration?</TranslatedText>
  </Question>
  <CodeListRef CodeListOID="CL.C99074.DIR"/>
  <Alias Context="prompt" Name="Directionality"/>
  <Alias Context="completionInstructions"
   Name="Record the directionality of the body location where the study treatment was administered (e.g., Anterior, Lower, Proximal, Upper)."/>
  <Alias Context="implementationNotes"
   Name="May be preprinted or collected when the sponsor needs to identify the directionality of the anatomical location. Sponsors may collect the data using a subset list of controlled terminology on the CRF."/>
  <Alias Context="mappingInstructions"
   Name="Maps directly to the SDTMIG variable listed in the column with the heading SDTMIG Target."
  />
 </ItemDef>
 <ItemDef OID="IT.PRYN" Name="PRYN" DataType="text">
  <Description>
   <TranslatedText xml:lang="en">PRYN</TranslatedText>
  </Description>
  <Question>
   <TranslatedText xml:lang="en">Were any surgical, therapeutic, or diagnostic procedures
    performed?</TranslatedText>
  </Question>
  <CodeListRef CodeListOID="CL.C66742.NY"/>
  <Alias Context="prompt" Name="Any Procedures"/>
  <Alias Context="completionInstructions"
   Name="Indicate if the subject had any surgical, therapeutic or diagnostic procedures. If &quot;Yes&quot;, include the appropriate details where indicated on the CRF."/>
  <Alias Context="implementationNotes"
   Name="The intent/purpose of collecting this field is to help with data cleaning and monitoring. It provides verification that all other fields on the CRF were deliberately left blank."/>
  <Alias Context="mappingInstructions"
   Name="Does not map to an SDTMIG variable. The SDTM aCRF is annotated to indicate that this field is NOT SUBMITTED."
  />
 </ItemDef>
 <ItemDef OID="IT.PRCAT" Name="PRCAT" DataType="text">
  <Description>
   <TranslatedText xml:lang="en">PRCAT</TranslatedText>
  </Description>
  <Question>
   <TranslatedText xml:lang="en">What was the category of the procedure?</TranslatedText>
  </Question>
  <Alias Context="prompt" Name="[Procedure Category]; NULL"/>
  <Alias Context="completionInstructions"
   Name="Record the procedure category, if not preprinted on the CRF."/>
  <Alias Context="implementationNotes"
   Name="Sponsor-defined controlled terminology. This would most commonly be either a heading or a preprinted category value on the CRF, and not a question to which the site would provide an answer. If a question is asked, the response would typically be a sponsor-defined codelist. If the form is laid out as a grid, then words such as &quot;Category&quot; can be included as the column header."/>
  <Alias Context="mappingInstructions"
   Name="Maps directly to the SDTMIG variable listed in the column with the heading SDTMIG Target."
  />
 </ItemDef>
 <ItemDef OID="IT.PRSCAT" Name="PRSCAT" DataType="text">
  <Description>
   <TranslatedText xml:lang="en">PRSCAT</TranslatedText>
  </Description>
  <Question>
   <TranslatedText xml:lang="en">What was the subcategory of the procedure?</TranslatedText>
  </Question>
  <Alias Context="prompt" Name="[Procedure Subcategory]; NULL"/>
  <Alias Context="completionInstructions"
   Name="Record the procedure subcategory, if not preprinted on the CRF."/>
  <Alias Context="implementationNotes"
   Name="Sponsor-defined controlled terminology. This would most commonly be preprinted on the CRF or screen and prepopulated in the data management system. This is not typically a question to which the site would provide an answer. PRSCAT can only be used if there is a PRCAT and it must be a subcategorization of PRCAT."/>
  <Alias Context="mappingInstructions"
   Name="Maps directly to the SDTMIG variable listed in the column with the heading SDTMIG Target."
  />
 </ItemDef>
 <ItemDef OID="IT.PRSPID" Name="PRSPID" DataType="text">
  <Description>
   <TranslatedText xml:lang="en">PRSPID</TranslatedText>
  </Description>
  <Question>
   <TranslatedText xml:lang="en">[Sponsor defined question]</TranslatedText>
  </Question>
  <Alias Context="prompt" Name="[Sponsor defined]"/>
  <Alias Context="completionInstructions"
   Name="If collected on the CRF, sponsor may insert instructions to ensure each record has a unique identifier."/>
  <Alias Context="implementationNotes"
   Name="Because SPID is a sponsor-defined identifier, conformance to Question Text or Item Prompt is not applicable. Typically used as an identifier in a data query to communicate clearly to the site the specific record in question or to reconcile procedure records with medical history and/or with AEs. May be used to record preprinted number (e.g., line number, record number) on the CRF. This field may be populated by the sponsor&apos;s data collection system."/>
  <Alias Context="mappingInstructions"
   Name="Maps directly to the SDTMIG variable listed in the column with the heading SDTMIG Target. May be used to create RELREC to link this record with a record in another domain."
  />
 </ItemDef>
 <ItemDef OID="IT.PRTRT" Name="PRTRT" DataType="text">
  <Description>
   <TranslatedText xml:lang="en">PRTRT</TranslatedText>
  </Description>
